deck_A_loss,deck_B_loss,deck_C_loss,deck_D_loss,trials_2.thisRepN,trials_2.thisTrialN,trials_2.thisN,trials_2.thisIndex,trials.thisRepN,trials.thisTrialN,trials.thisN,trials.thisIndex,thisRow.t,notes,defining_variables.started,defining_variables.stopped,Instructions.started,key_instruct.started,Instructions.stopped,key_instruct.keys,key_instruct.rt,key_instruct.duration,time_instructions.started,key_instruct_3.started,time_instructions.stopped,key_instruct_3.keys,key_instruct_3.rt,key_instruct_3.duration,countdown.started,text_countdown.started,countdown.stopped,Task.started,current_total.started,deck_A.started,deck_B.started,deck_C.started,deck_D.started,deck_A_label.started,deck_B_label.started,deck_C_label.started,deck_D_label.started,mouse.started,Task.stopped,condition,reward,loss,total,mouse.x,mouse.y,mouse.leftButton,mouse.midButton,mouse.rightButton,mouse.time,mouse.clicked_name,gamble_result.started,text.started,gamble_result.stopped,text.stopped,participant,session,date,expName,psychopyVersion,frameRate,expStart,
,,,,,,,,,,,,,,0.10436679100030233,0.10481041599996388,0.10482408300003954,0.13802391600029296,7.8687525830000595,space,7.698361499999919,None,,,,,,,,,,,,,,,,,,,,,,,,,,,,,,,,,,,,,pushkar,001,2024-04-09_08h26.10.966,IOWA_Gambling_Task_incase,2023.2.2,None,2024-04-09 08h26.22.322222 +0530,
,,,,,,,,,,,,,,,,,,,,,,7.86879266599999,7.91398587499998,14.159381916000257,space,6.244049917000211,None,,,,,,,,,,,,,,,,,,,,,,,,,,,,,,,pushkar,001,2024-04-09_08h26.10.966,IOWA_Gambling_Task_incase,2023.2.2,None,2024-04-09 08h26.22.322222 +0530,
250,0,50,0,0,0,0,0,0,0,0,3,24.21374295800024,,,,,,,,,,,,,,,,14.159423957999934,14.195646665999902,24.168725583000196,24.187250333000065,24.21374295800024,24.21374295800024,24.21374295800024,24.21374295800024,24.21374295800024,24.21374295800024,24.21374295800024,24.21374295800024,24.21374295800024,0.037894415999744524,25.381495832999917,sufficient_time,100,250,1850,[-0.5977777777777777],[0.06444444444444444],[1],[0],[0],[1.1835176249996948],['deck_A'],25.38243433300022,25.39320325000017,28.385370833000252,,pushkar,001,2024-04-09_08h26.10.966,IOWA_Gambling_Task_incase,2023.2.2,None,2024-04-09 08h26.22.322222 +0530,
0,0,0,0,0,0,0,0,0,1,1,8,28.404646040999978,,,,,,,,,,,,,,,,,,,28.385714541000198,28.404646040999978,28.404646040999978,28.404646040999978,28.404646040999978,28.404646040999978,28.404646040999978,28.404646040999978,28.404646040999978,28.404646040999978,0.007770790999984456,29.137672332999955,sufficient_time,100,0,1950,[-0.23333333333333334],[0.03222222222222222],[1],[0],[0],[0.7467895830000089],['deck_B'],29.13818641600028,29.15156233300013,32.136015125000085,32.157524791000014,pushkar,001,2024-04-09_08h26.10.966,IOWA_Gambling_Task_incase,2023.2.2,None,2024-04-09 08h26.22.322222 +0530,
250,1250,50,250,0,0,0,0,0,2,2,0,32.157524791000014,,,,,,,,,,,,,,,,,,,32.13643795799999,32.157524791000014,32.157524791000014,32.157524791000014,32.157524791000014,32.157524791000014,32.157524791000014,32.157524791000014,32.157524791000014,32.157524791000014,0.0038204590000532335,32.830184375000044,sufficient_time,50,50,1950,[0.11555555555555555],[0.024444444444444446],[1],[0],[0],[0.6875145829999383],['deck_C'],32.83069116600018,32.839717415999985,35.825514915999975,35.840637625,pushkar,001,2024-04-09_08h26.10.966,IOWA_Gambling_Task_incase,2023.2.2,None,2024-04-09 08h26.22.322222 +0530,
250,0,50,0,0,0,0,0,0,3,3,4,35.840637625,,,,,,,,,,,,,,,,,,,35.82589125000004,35.840637625,35.840637625,35.840637625,35.840637625,35.840637625,35.840637625,35.840637625,35.840637625,35.840637625,0.01008937500000684,36.16355429100031,sufficient_time,50,0,2000,[0.5522222222222222],[0.10555555555555556],[1],[0],[0],[0.32239795800023785],['deck_D'],36.16408583300017,36.17251695799996,39.15936158300019,39.17919024999992,pushkar,001,2024-04-09_08h26.10.966,IOWA_Gambling_Task_incase,2023.2.2,None,2024-04-09 08h26.22.322222 +0530,
0,0,0,0,0,0,0,0,0,4,4,9,39.17919024999992,,,,,,,,,,,,,,,,,,,39.15976816600005,39.17919024999992,39.17919024999992,39.17919024999992,39.17919024999992,39.17919024999992,39.17919024999992,39.17919024999992,39.17919024999992,39.17919024999992,0.0003070419998039142,39.48774175000017,sufficient_time,50,0,2050,[0.1988888888888889],[0.052222222222222225],[1],[0],[0],[0.3226755000000594],['deck_C'],39.4882433329999,39.493826291000005,42.47702833299991,42.495694041000206,pushkar,001,2024-04-09_08h26.10.966,IOWA_Gambling_Task_incase,2023.2.2,None,2024-04-09 08h26.22.322222 +0530,
0,0,0,0,0,0,0,0,0,5,5,7,42.495694041000206,,,,,,,,,,,,,,,,,,,42.47744525000007,42.495694041000206,42.495694041000206,42.495694041000206,42.495694041000206,42.495694041000206,42.495694041000206,42.495694041000206,42.495694041000206,42.495694041000206,0.007637292000254092,44.020907250000164,sufficient_time,100,0,2150,[-0.2511111111111111],[0.06666666666666667],[1],[0],[0],[1.5246212910001304],['deck_B'],44.021437958000206,44.029465625000284,47.019177958,47.03944720800018,pushkar,001,2024-04-09_08h26.10.966,IOWA_Gambling_Task_incase,2023.2.2,None,2024-04-09 08h26.22.322222 +0530,
0,0,0,0,0,0,0,0,0,6,6,6,47.03944720800018,,,,,,,,,,,,,,,,,,,47.019580041000154,47.03944720800018,47.03944720800018,47.03944720800018,47.03944720800018,47.03944720800018,47.03944720800018,47.03944720800018,47.03944720800018,47.03944720800018,0.0027256250000391447,47.30922412500013,sufficient_time,100,0,2250,[-0.2511111111111111],[0.06666666666666667],[1],[0],[0],[0.28437374999975873],['deck_B'],47.30976766599997,47.319096125000215,50.303005083000244,50.32322525000018,pushkar,001,2024-04-09_08h26.10.966,IOWA_Gambling_Task_incase,2023.2.2,None,2024-04-09 08h26.22.322222 +0530,
0,0,0,0,0,0,0,0,0,7,7,5,50.32322525000018,,,,,,,,,,,,,,,,,,,50.303425708000304,50.32322525000018,50.32322525000018,50.32322525000018,50.32322525000018,50.32322525000018,50.32322525000018,50.32322525000018,50.32322525000018,50.32322525000018,0.013631207999878825,50.813676041000235,sufficient_time,100,0,2350,[-0.24666666666666667],[0.06666666666666667],[1],[0],[0],[0.4898130830001719],['deck_B'],50.81419400000004,50.819254750000255,53.80335029100024,53.82499387500002,pushkar,001,2024-04-09_08h26.10.966,IOWA_Gambling_Task_incase,2023.2.2,None,2024-04-09 08h26.22.322222 +0530,
250,0,50,0,0,0,0,0,0,8,8,2,53.82499387500002,,,,,,,,,,,,,,,,,,,53.803779290999955,53.82499387500002,53.82499387500002,53.82499387500002,53.82499387500002,53.82499387500002,53.82499387500002,53.82499387500002,53.82499387500002,53.82499387500002,0.010986292000325193,54.170682124999985,sufficient_time,100,0,2450,[-0.24666666666666667],[0.06666666666666667],[1],[0],[0],[0.3450810409999576],['deck_B'],54.171182583000245,54.17626525000014,57.16054737500008,57.18019341600029,pushkar,001,2024-04-09_08h26.10.966,IOWA_Gambling_Task_incase,2023.2.2,None,2024-04-09 08h26.22.322222 +0530,
250,0,50,0,0,0,0,0,0,9,9,1,57.18019341600029,,,,,,,,,,,,,,,,,,,57.160895625000194,57.18019341600029,57.18019341600029,57.18019341600029,57.18019341600029,57.18019341600029,57.18019341600029,57.18019341600029,57.18019341600029,57.18019341600029,0.009198541999921872,57.70502412499991,sufficient_time,100,250,2300,[-0.5522222222222222],[0.04888888888888889],[1],[0],[0],[0.5242433329999585],['deck_A'],57.70555841600026,57.71894724999993,60.703582375000224,60.73352458299996,pushkar,001,2024-04-09_08h26.10.966,IOWA_Gambling_Task_incase,2023.2.2,None,2024-04-09 08h26.22.322222 +0530,
,,,,0,0,0,0,,,,,,,,,,,,,,,,,,,,,,,,,,,,,,,,,,,,,,,,,,,,,,,,,,,pushkar,001,2024-04-09_08h26.10.966,IOWA_Gambling_Task_incase,2023.2.2,None,2024-04-09 08h26.22.322222 +0530,
250,0,50,0,1,0,1,0,0,0,0,2,60.73352458299996,,,,,,,,,,,,,,,,,,,60.71496079100007,60.73352458299996,60.73352458299996,60.73352458299996,60.73352458299996,60.73352458299996,60.73352458299996,60.73352458299996,60.73352458299996,60.73352458299996,0.013106375000006665,61.703635374999976,sufficient_time,100,0,2400,[-0.2788888888888889],[0.08888888888888889],[1],[0],[0],[0.9843364580001435],['deck_B'],61.7045081250003,61.712713291,64.70370037500015,64.72470141600024,pushkar,001,2024-04-09_08h26.10.966,IOWA_Gambling_Task_incase,2023.2.2,None,2024-04-09 08h26.22.322222 +0530,
0,0,0,0,1,0,1,0,0,1,1,5,64.72470141600024,,,,,,,,,,,,,,,,,,,64.70411108300004,64.72470141600024,64.72470141600024,64.72470141600024,64.72470141600024,64.72470141600024,64.72470141600024,64.72470141600024,64.72470141600024,64.72470141600024,0.004166291000274214,65.064477291,sufficient_time,100,0,2500,[-0.21333333333333335],[0.10777777777777778],[1],[0],[0],[0.3551370830000451],['deck_B'],65.06499350000013,65.08650274999991,68.069924291,,pushkar,001,2024-04-09_08h26.10.966,IOWA_Gambling_Task_incase,2023.2.2,None,2024-04-09 08h26.22.322222 +0530,
0,0,0,0,1,0,1,0,0,2,2,7,68.0909274999999,,,,,,,,,,,,,,,,,,,68.07033924999996,68.0909274999999,68.0909274999999,68.0909274999999,68.0909274999999,68.0909274999999,68.0909274999999,68.0909274999999,68.0909274999999,68.0909274999999,0.009904541000196332,68.45866941600025,sufficient_time,100,0,2600,[-0.21777777777777776],[0.07777777777777778],[1],[0],[0],[0.38314649999983885],['deck_B'],68.45918695799992,68.47122887500018,71.45941008299997,71.48145687500028,pushkar,001,2024-04-09_08h26.10.966,IOWA_Gambling_Task_incase,2023.2.2,None,2024-04-09 08h26.22.322222 +0530,
250,0,50,0,1,0,1,0,0,3,3,3,71.48145687500028,,,,,,,,,,,,,,,,,,,71.45984412500002,71.48145687500028,71.48145687500028,71.48145687500028,71.48145687500028,71.48145687500028,71.48145687500028,71.48145687500028,71.48145687500028,71.48145687500028,0.006965416000184632,71.83135833300003,sufficient_time,100,0,2700,[-0.21777777777777776],[0.07777777777777778],[1],[0],[0],[0.36454150000008667],['deck_B'],71.8318762910003,71.85313554100003,74.83664933299997,,pushkar,001,2024-04-09_08h26.10.966,IOWA_Gambling_Task_incase,2023.2.2,None,2024-04-09 08h26.22.322222 +0530,
0,0,0,0,1,0,1,0,0,4,4,9,74.858397083,,,,,,,,,,,,,,,,,,,74.83708262500022,74.858397083,74.858397083,74.858397083,74.858397083,74.858397083,74.858397083,74.858397083,74.858397083,74.858397083,0.010773375000098895,75.54269870799999,sufficient_time,100,0,2800,[-0.21777777777777776],[0.07777777777777778],[1],[0],[0],[0.6993781249998392],['deck_B'],75.54326033300003,75.55311495800015,78.53725350000013,78.55796791600005,pushkar,001,2024-04-09_08h26.10.966,IOWA_Gambling_Task_incase,2023.2.2,None,2024-04-09 08h26.22.322222 +0530,
250,0,50,0,1,0,1,0,0,5,5,4,78.55796791600005,,,,,,,,,,,,,,,,,,,78.53768379100029,78.55796791600005,78.55796791600005,78.55796791600005,78.55796791600005,78.55796791600005,78.55796791600005,78.55796791600005,78.55796791600005,78.55796791600005,-0.0009810830001697468,79.18148012500023,sufficient_time,100,0,2900,[-0.21777777777777776],[0.07777777777777778],[1],[0],[0],[0.6385302499998033],['deck_B'],79.1820016659999,79.1875285000001,82.17065208300028,82.1910038330002,pushkar,001,2024-04-09_08h26.10.966,IOWA_Gambling_Task_incase,2023.2.2,None,2024-04-09 08h26.22.322222 +0530,
250,1250,50,250,1,0,1,0,0,6,6,0,82.1910038330002,,,,,,,,,,,,,,,,,,,82.1710593329999,82.1910038330002,82.1910038330002,82.1910038330002,82.1910038330002,82.1910038330002,82.1910038330002,82.1910038330002,82.1910038330002,82.1910038330002,0.009175000000141154,82.46532466600001,sufficient_time,100,1250,1750,[-0.21777777777777776],[0.07777777777777778],[1],[0],[0],[0.2737041249997674],['deck_B'],82.46583362499996,82.47455041600006,85.45972075000009,85.47819254100023,pushkar,001,2024-04-09_08h26.10.966,IOWA_Gambling_Task_incase,2023.2.2,None,2024-04-09 08h26.22.322222 +0530,
0,0,0,0,1,0,1,0,0,7,7,8,85.47819254100023,,,,,,,,,,,,,,,,,,,85.46014729099988,85.47819254100023,85.47819254100023,85.47819254100023,85.47819254100023,85.47819254100023,85.47819254100023,85.47819254100023,85.47819254100023,85.47819254100023,0.012530083000001468,86.4390954999999,sufficient_time,50,0,1800,[0.15222222222222223],[0.09111111111111111],[1],[0],[0],[0.9602832499999749],['deck_C'],86.43960045800031,86.45320212500019,89.43739441600019,89.45613475000027,pushkar,001,2024-04-09_08h26.10.966,IOWA_Gambling_Task_incase,2023.2.2,None,2024-04-09 08h26.22.322222 +0530,
250,0,50,0,1,0,1,0,0,8,8,1,89.45613475000027,,,,,,,,,,,,,,,,,,,89.4377737499999,89.45613475000027,89.45613475000027,89.45613475000027,89.45613475000027,89.45613475000027,89.45613475000027,89.45613475000027,89.45613475000027,89.45613475000027,0.0019135830002596776,89.82248237500016,sufficient_time,50,0,1850,[0.5011111111111111],[0.13333333333333333],[1],[0],[0],[0.38042170900007477],['deck_D'],89.823003083,89.83687774999999,92.82102404100033,92.84024937499998,pushkar,001,2024-04-09_08h26.10.966,IOWA_Gambling_Task_incase,2023.2.2,None,2024-04-09 08h26.22.322222 +0530,
0,0,0,0,1,0,1,0,0,9,9,6,92.84024937499998,,,,,,,,,,,,,,,,,,,92.82147591600005,92.84024937499998,92.84024937499998,92.84024937499998,92.84024937499998,92.84024937499998,92.84024937499998,92.84024937499998,92.84024937499998,92.84024937499998,0.002404625000053784,93.13216654100006,sufficient_time,50,0,1900,[0.5366666666666666],[0.14555555555555555],[1],[0],[0],[0.3060896249999132],['deck_D'],93.13268749999997,93.15374016600026,96.13731595800027,,pushkar,001,2024-04-09_08h26.10.966,IOWA_Gambling_Task_incase,2023.2.2,None,2024-04-09 08h26.22.322222 +0530,
,,,,1,0,1,0,,,,,,,,,,,,,,,,,,,,,,,,,,,,,,,,,,,,,,,,,,,,,,,,,,,pushkar,001,2024-04-09_08h26.10.966,IOWA_Gambling_Task_incase,2023.2.2,None,2024-04-09 08h26.22.322222 +0530,
250,0,50,0,2,0,2,0,0,0,0,3,96.16901837500018,,,,,,,,,,,,,,,,,,,96.14995483300027,96.16901837500018,96.16901837500018,96.16901837500018,96.16901837500018,96.16901837500018,96.16901837500018,96.16901837500018,96.16901837500018,96.16901837500018,0.02141200000005483,96.70630858300001,sufficient_time,50,0,1950,[0.5366666666666666],[0.14444444444444443],[1],[0],[0],[0.5515909580003608],['deck_D'],96.70722337500001,96.72061883300012,99.70400045799988,99.72499850000031,pushkar,001,2024-04-09_08h26.10.966,IOWA_Gambling_Task_incase,2023.2.2,None,2024-04-09 08h26.22.322222 +0530,
0,0,0,0,2,0,2,0,0,1,1,7,99.72499850000031,,,,,,,,,,,,,,,,,,,99.7044261660003,99.72499850000031,99.72499850000031,99.72499850000031,99.72499850000031,99.72499850000031,99.72499850000031,99.72499850000031,99.72499850000031,99.72499850000031,0.002466000000367785,100.25582220800015,sufficient_time,50,0,2000,[0.5355555555555556],[0.14444444444444443],[1],[0],[0],[0.5454525830000421],['deck_D'],100.25634887500019,100.27025179100019,103.25474141599989,103.27600829099993,pushkar,001,2024-04-09_08h26.10.966,IOWA_Gambling_Task_incase,2023.2.2,None,2024-04-09 08h26.22.322222 +0530,
250,1250,50,250,2,0,2,0,0,2,2,0,103.27600829099993,,,,,,,,,,,,,,,,,,,103.2552517500003,103.27600829099993,103.27600829099993,103.27600829099993,103.27600829099993,103.27600829099993,103.27600829099993,103.27600829099993,103.27600829099993,103.27600829099993,0.0037087919999976293,103.78950075000012,sufficient_time,50,250,1800,[0.5355555555555556],[0.14444444444444443],[1],[0],[0],[0.5287592919999042],['deck_D'],103.79001108300008,103.80361350000021,106.78818462500021,106.80862108300016,pushkar,001,2024-04-09_08h26.10.966,IOWA_Gambling_Task_incase,2023.2.2,None,2024-04-09 08h26.22.322222 +0530,
0,0,0,0,2,0,2,0,0,3,3,6,106.80862108300016,,,,,,,,,,,,,,,,,,,106.78859050000028,106.80862108300016,106.80862108300016,106.80862108300016,106.80862108300016,106.80862108300016,106.80862108300016,106.80862108300016,106.80862108300016,106.80862108300016,0.0027263340002718905,107.30639874999997,sufficient_time,50,0,1850,[0.27444444444444444],[0.12444444444444444],[1],[0],[0],[0.5130593330000011],['deck_C'],107.30693470799997,107.32039274999988,110.30477920800013,110.32668666600011,pushkar,001,2024-04-09_08h26.10.966,IOWA_Gambling_Task_incase,2023.2.2,None,2024-04-09 08h26.22.322222 +0530,
250,0,50,0,2,0,2,0,0,4,4,4,110.32668666600011,,,,,,,,,,,,,,,,,,,110.3051998750002,110.32668666600011,110.32668666600011,110.32668666600011,110.32668666600011,110.32668666600011,110.32668666600011,110.32668666600011,110.32668666600011,110.32668666600011,0.0042967080003109,110.67222829100001,sufficient_time,50,50,1850,[0.2722222222222222],[0.12333333333333334],[1],[0],[0],[0.3603291250001348],['deck_C'],110.67275195799994,110.68092812500026,113.67118262500026,113.68756604100008,pushkar,001,2024-04-09_08h26.10.966,IOWA_Gambling_Task_incase,2023.2.2,None,2024-04-09 08h26.22.322222 +0530,
0,0,0,0,2,0,2,0,0,5,5,5,113.68756604100008,,,,,,,,,,,,,,,,,,,113.67162758299992,113.68756604100008,113.68756604100008,113.68756604100008,113.68756604100008,113.68756604100008,113.68756604100008,113.68756604100008,113.68756604100008,113.68756604100008,0.014988917000209767,114.3827053330001,sufficient_time,50,0,1900,[0.2722222222222222],[0.12333333333333334],[1],[0],[0],[0.6945902090001255],['deck_C'],114.38321187500014,114.39164954100033,117.37928004100013,117.40033962500002,pushkar,001,2024-04-09_08h26.10.966,IOWA_Gambling_Task_incase,2023.2.2,None,2024-04-09 08h26.22.322222 +0530,
250,0,50,0,2,0,2,0,0,6,6,2,117.40033962500002,,,,,,,,,,,,,,,,,,,117.3797077080003,117.40033962500002,117.40033962500002,117.40033962500002,117.40033962500002,117.40033962500002,117.40033962500002,117.40033962500002,117.40033962500002,117.40033962500002,0.0010662919999049336,118.02312275000031,sufficient_time,50,50,1900,[0.2722222222222222],[0.12333333333333334],[1],[0],[0],[0.6381628750000345],['deck_C'],118.02363087499998,118.031282208,121.02178941600005,121.03798216599989,pushkar,001,2024-04-09_08h26.10.966,IOWA_Gambling_Task_incase,2023.2.2,None,2024-04-09 08h26.22.322222 +0530,
0,0,0,0,2,0,2,0,0,7,7,9,121.03798216599989,,,,,,,,,,,,,,,,,,,121.02224000000024,121.03798216599989,121.03798216599989,121.03798216599989,121.03798216599989,121.03798216599989,121.03798216599989,121.03798216599989,121.03798216599989,121.03798216599989,0.01454445899980783,121.51122720800004,sufficient_time,50,0,1950,[0.2611111111111111],[0.12111111111111111],[1],[0],[0],[0.4725636250000207],['deck_C'],121.51175033300024,121.52074100000027,124.50525908300006,124.52550245800012,pushkar,001,2024-04-09_08h26.10.966,IOWA_Gambling_Task_incase,2023.2.2,None,2024-04-09 08h26.22.322222 +0530,
250,0,50,0,2,0,2,0,0,8,8,1,124.52550245800012,,,,,,,,,,,,,,,,,,,124.50569220800026,124.52550245800012,124.52550245800012,124.52550245800012,124.52550245800012,124.52550245800012,124.52550245800012,124.52550245800012,124.52550245800012,124.52550245800012,0.013933374999851367,124.8237575410003,sufficient_time,50,50,1950,[0.24444444444444444],[0.11333333333333333],[1],[0],[0],[0.29756316700013485],['deck_C'],124.82428495800013,124.83774704100006,127.82199704100003,127.83870666600023,pushkar,001,2024-04-09_08h26.10.966,IOWA_Gambling_Task_incase,2023.2.2,None,2024-04-09 08h26.22.322222 +0530,
0,0,0,0,2,0,2,0,0,9,9,8,127.83870666600023,,,,,,,,,,,,,,,,,,,127.82243337499995,127.83870666600023,127.83870666600023,127.83870666600023,127.83870666600023,127.83870666600023,127.83870666600023,127.83870666600023,127.83870666600023,127.83870666600023,0.014598291000311292,128.18280370799994,sufficient_time,50,0,2000,[0.24444444444444444],[0.11333333333333333],[1],[0],[0],[0.3435280829999101],['deck_C'],128.18331158299998,128.1928687909999,131.17776337500027,131.20950941599995,pushkar,001,2024-04-09_08h26.10.966,IOWA_Gambling_Task_incase,2023.2.2,None,2024-04-09 08h26.22.322222 +0530,
,,,,2,0,2,0,,,,,,,,,,,,,,,,,,,,,,,,,,,,,,,,,,,,,,,,,,,,,,,,,,,pushkar,001,2024-04-09_08h26.10.966,IOWA_Gambling_Task_incase,2023.2.2,None,2024-04-09 08h26.22.322222 +0530,
0,0,0,0,3,0,3,0,0,0,0,8,131.20950941599995,,,,,,,,,,,,,,,,,,,131.19051629100022,131.20950941599995,131.20950941599995,131.20950941599995,131.20950941599995,131.20950941599995,131.20950941599995,131.20950941599995,131.20950941599995,131.20950941599995,0.011159083000165992,131.46761345799996,sufficient_time,50,0,2050,[0.24444444444444444],[0.11333333333333333],[1],[0],[0],[0.27252737500020885],['deck_C'],131.4684419580003,131.47496412500004,134.4620540410001,134.48050179100028,pushkar,001,2024-04-09_08h26.10.966,IOWA_Gambling_Task_incase,2023.2.2,None,2024-04-09 08h26.22.322222 +0530,
0,0,0,0,3,0,3,0,0,1,1,7,134.48050179100028,,,,,,,,,,,,,,,,,,,134.46242629100016,134.48050179100028,134.48050179100028,134.48050179100028,134.48050179100028,134.48050179100028,134.48050179100028,134.48050179100028,134.48050179100028,134.48050179100028,0.01224104199991416,134.79963675,sufficient_time,100,0,2150,[-0.24333333333333335],[0.052222222222222225],[1],[0],[0],[0.318577374999677],['deck_B'],134.80015683300007,134.80873004100022,137.7957919999999,137.8157999580003,pushkar,001,2024-04-09_08h26.10.966,IOWA_Gambling_Task_incase,2023.2.2,None,2024-04-09 08h26.22.322222 +0530,
250,0,50,0,3,0,3,0,0,2,2,4,137.8157999580003,,,,,,,,,,,,,,,,,,,137.79623166600004,137.8157999580003,137.8157999580003,137.8157999580003,137.8157999580003,137.8157999580003,137.8157999580003,137.8157999580003,137.8157999580003,137.8157999580003,0.001100124999993568,138.3286491660001,sufficient_time,100,0,2250,[-0.24333333333333335],[0.052222222222222225],[1],[0],[0],[0.526787916000103],['deck_B'],138.32916383300017,138.33828079100022,141.321769916,141.34243970800026,pushkar,001,2024-04-09_08h26.10.966,IOWA_Gambling_Task_incase,2023.2.2,None,2024-04-09 08h26.22.322222 +0530,
0,0,0,0,3,0,3,0,0,3,3,5,141.34243970800026,,,,,,,,,,,,,,,,,,,141.322170208,141.34243970800026,141.34243970800026,141.34243970800026,141.34243970800026,141.34243970800026,141.34243970800026,141.34243970800026,141.34243970800026,141.34243970800026,0.013444375000290165,142.03323649999993,sufficient_time,100,0,2350,[-0.24333333333333335],[0.052222222222222225],[1],[0],[0],[0.6902490830002534],['deck_B'],142.03373408300013,142.05468629100005,145.03845950000004,,pushkar,001,2024-04-09_08h26.10.966,IOWA_Gambling_Task_incase,2023.2.2,None,2024-04-09 08h26.22.322222 +0530,
250,0,50,0,3,0,3,0,0,4,4,3,145.0591074580002,,,,,,,,,,,,,,,,,,,145.03887974999998,145.0591074580002,145.0591074580002,145.0591074580002,145.0591074580002,145.0591074580002,145.0591074580002,145.0591074580002,145.0591074580002,145.0591074580002,0.0096942919999492,145.44516266600021,sufficient_time,100,0,2450,[-0.22444444444444445],[0.06111111111111111],[1],[0],[0],[0.40103291700006594],['deck_B'],145.44572779100008,145.454703333,148.43879349999997,148.45885187500016,pushkar,001,2024-04-09_08h26.10.966,IOWA_Gambling_Task_incase,2023.2.2,None,2024-04-09 08h26.22.322222 +0530,
0,0,0,0,3,0,3,0,0,5,5,9,148.45885187500016,,,,,,,,,,,,,,,,,,,148.43921645799992,148.45885187500016,148.45885187500016,148.45885187500016,148.45885187500016,148.45885187500016,148.45885187500016,148.45885187500016,148.45885187500016,148.45885187500016,0.013292708999870229,148.89464962500006,sufficient_time,100,0,2550,[-0.2388888888888889],[0.016666666666666666],[1],[0],[0],[0.43517195899994476],['deck_B'],148.8951701660003,148.9050389160002,151.88864283300018,151.91006629100002,pushkar,001,2024-04-09_08h26.10.966,IOWA_Gambling_Task_incase,2023.2.2,None,2024-04-09 08h26.22.322222 +0530,
250,0,50,0,3,0,3,0,0,6,6,1,151.91006629100002,,,,,,,,,,,,,,,,,,,151.88907879099997,151.91006629100002,151.91006629100002,151.91006629100002,151.91006629100002,151.91006629100002,151.91006629100002,151.91006629100002,151.91006629100002,151.91006629100002,-0.000983666000138328,152.68361454100022,sufficient_time,100,250,2400,[-0.5166666666666667],[0.024444444444444446],[1],[0],[0],[0.7887835419996918],['deck_A'],152.68412258300032,152.69234975000018,155.67858174999992,155.69738700000016,pushkar,001,2024-04-09_08h26.10.966,IOWA_Gambling_Task_incase,2023.2.2,None,2024-04-09 08h26.22.322222 +0530,
250,0,50,0,3,0,3,0,0,7,7,2,155.69738700000016,,,,,,,,,,,,,,,,,,,155.6789954159999,155.69738700000016,155.69738700000016,155.69738700000016,155.69738700000016,155.69738700000016,155.69738700000016,155.69738700000016,155.69738700000016,155.69738700000016,-0.0008992919997581339,156.10769341600007,sufficient_time,100,250,2250,[-0.5355555555555556],[0.02],[1],[0],[0],[0.4237866670000585],['deck_A'],156.10821112500025,156.1216388329999,159.1062895,159.1261985000001,pushkar,001,2024-04-09_08h26.10.966,IOWA_Gambling_Task_incase,2023.2.2,None,2024-04-09 08h26.22.322222 +0530,
250,1250,50,250,3,0,3,0,0,8,8,0,159.1261985000001,,,,,,,,,,,,,,,,,,,159.10672745800002,159.1261985000001,159.1261985000001,159.1261985000001,159.1261985000001,159.1261985000001,159.1261985000001,159.1261985000001,159.1261985000001,159.1261985000001,0.003107291999640438,159.45042354099996,sufficient_time,100,1250,1100,[-0.17222222222222222],[-0.06444444444444444],[1],[0],[0],[0.338473625000006],['deck_B'],159.4509472079999,159.45973537500004,162.44673224999997,162.46686,pushkar,001,2024-04-09_08h26.10.966,IOWA_Gambling_Task_incase,2023.2.2,None,2024-04-09 08h26.22.322222 +0530,
0,0,0,0,3,0,3,0,0,9,9,6,162.46686,,,,,,,,,,,,,,,,,,,162.44714887500004,162.46686,162.46686,162.46686,162.46686,162.46686,162.46686,162.46686,162.46686,162.46686,0.0007400829999824055,163.183965791,sufficient_time,50,0,1150,[0.12777777777777777],[0.015555555555555555],[1],[0],[0],[0.7316093750000618],['deck_C'],163.18450462500005,163.19310087500025,166.17918020800016,166.20871529100032,pushkar,001,2024-04-09_08h26.10.966,IOWA_Gambling_Task_incase,2023.2.2,None,2024-04-09 08h26.22.322222 +0530,
,,,,3,0,3,0,,,,,,,,,,,,,,,,,,,,,,,,,,,,,,,,,,,,,,,,,,,,,,,,,,,pushkar,001,2024-04-09_08h26.10.966,IOWA_Gambling_Task_incase,2023.2.2,None,2024-04-09 08h26.22.322222 +0530,
250,0,50,0,4,0,4,0,0,0,0,2,166.20871529100032,,,,,,,,,,,,,,,,,,,166.1895614160003,166.20871529100032,166.20871529100032,166.20871529100032,166.20871529100032,166.20871529100032,166.20871529100032,166.20871529100032,166.20871529100032,166.20871529100032,0.008657791999667097,166.6289729580003,sufficient_time,50,50,1150,[0.15666666666666668],[0.04555555555555556],[1],[0],[0],[0.4352030410000225],['deck_C'],166.62984583300022,166.6383839160003,169.62291458300024,169.63904166600014,pushkar,001,2024-04-09_08h26.10.966,IOWA_Gambling_Task_incase,2023.2.2,None,2024-04-09 08h26.22.322222 +0530,
250,0,50,0,4,0,4,0,0,1,1,1,169.63904166600014,,,,,,,,,,,,,,,,,,,169.62335433299995,169.63904166600014,169.63904166600014,169.63904166600014,169.63904166600014,169.63904166600014,169.63904166600014,169.63904166600014,169.63904166600014,169.63904166600014,0.009401249999882566,170.65080383300028,sufficient_time,50,0,1200,[0.5644444444444444],[0.08777777777777777],[1],[0],[0],[1.0111842920000527],['deck_D'],170.6513124160001,170.65946970799996,173.64521654100008,173.6643375829999,pushkar,001,2024-04-09_08h26.10.966,IOWA_Gambling_Task_incase,2023.2.2,None,2024-04-09 08h26.22.322222 +0530,
0,0,0,0,4,0,4,0,0,2,2,9,173.6643375829999,,,,,,,,,,,,,,,,,,,173.64562174999992,173.6643375829999,173.6643375829999,173.6643375829999,173.6643375829999,173.6643375829999,173.6643375829999,173.6643375829999,173.6643375829999,173.6643375829999,0.013195665999774064,174.1180534160003,sufficient_time,50,0,1250,[0.5655555555555556],[0.08777777777777777],[1],[0],[0],[0.45316220799986695],['deck_D'],174.1185672910001,174.12611700000025,177.11230054099997,177.13120658300022,pushkar,001,2024-04-09_08h26.10.966,IOWA_Gambling_Task_incase,2023.2.2,None,2024-04-09 08h26.22.322222 +0530,
0,0,0,0,4,0,4,0,0,3,3,8,177.13120658300022,,,,,,,,,,,,,,,,,,,177.112699583,177.13120658300022,177.13120658300022,177.13120658300022,177.13120658300022,177.13120658300022,177.13120658300022,177.13120658300022,177.13120658300022,177.13120658300022,0.012808874999791442,177.6245389999999,sufficient_time,50,0,1300,[0.2877777777777778],[0.12111111111111111],[1],[0],[0],[0.4927432089998547],['deck_C'],177.62508400000024,177.63890712500006,180.6231358330001,180.64449770800002,pushkar,001,2024-04-09_08h26.10.966,IOWA_Gambling_Task_incase,2023.2.2,None,2024-04-09 08h26.22.322222 +0530,
0,0,0,0,4,0,4,0,0,4,4,5,180.64449770800002,,,,,,,,,,,,,,,,,,,180.6235766660002,180.64449770800002,180.64449770800002,180.64449770800002,180.64449770800002,180.64449770800002,180.64449770800002,180.64449770800002,180.64449770800002,180.64449770800002,0.003634417000284884,181.21780945799992,sufficient_time,50,0,1350,[0.2877777777777778],[0.12111111111111111],[1],[0],[0],[0.5884180419998302],['deck_C'],181.2183215,181.23933716600004,184.22290875,,pushkar,001,2024-04-09_08h26.10.966,IOWA_Gambling_Task_incase,2023.2.2,None,2024-04-09 08h26.22.322222 +0530,
250,0,50,0,4,0,4,0,0,5,5,3,184.24408166600006,,,,,,,,,,,,,,,,,,,184.22333974999992,184.24408166600006,184.24408166600006,184.24408166600006,184.24408166600006,184.24408166600006,184.24408166600006,184.24408166600006,184.24408166600006,184.24408166600006,0.009597499999927095,184.9085022080003,sufficient_time,50,50,1350,[0.2877777777777778],[0.12111111111111111],[1],[0],[0],[0.6798744169996098],['deck_C'],184.90905166600032,184.92239745799998,187.90682908300005,187.92304329099989,pushkar,001,2024-04-09_08h26.10.966,IOWA_Gambling_Task_incase,2023.2.2,None,2024-04-09 08h26.22.322222 +0530,
250,0,50,0,4,0,4,0,0,6,6,4,187.92304329099989,,,,,,,,,,,,,,,,,,,187.90724416600005,187.92304329099989,187.92304329099989,187.92304329099989,187.92304329099989,187.92304329099989,187.92304329099989,187.92304329099989,187.92304329099989,187.92304329099989,0.01414595799997187,188.91225054100005,sufficient_time,50,0,1400,[0.6022222222222222],[0.13555555555555557],[1],[0],[0],[0.9886133749996588],['deck_D'],188.91277641600027,188.92228970799988,191.9069370000002,191.92774420800015,pushkar,001,2024-04-09_08h26.10.966,IOWA_Gambling_Task_incase,2023.2.2,None,2024-04-09 08h26.22.322222 +0530,
250,1250,50,250,4,0,4,0,0,7,7,0,191.92774420800015,,,,,,,,,,,,,,,,,,,191.90736641600006,191.92774420800015,191.92774420800015,191.92774420800015,191.92774420800015,191.92774420800015,191.92774420800015,191.92774420800015,191.92774420800015,191.92774420800015,-0.0008020830000532442,192.35204054099995,sufficient_time,50,250,1200,[0.6022222222222222],[0.13555555555555557],[1],[0],[0],[0.4393458329996065],['deck_D'],192.35254383300025,192.3610986660001,195.3459938330002,195.36479654100003,pushkar,001,2024-04-09_08h26.10.966,IOWA_Gambling_Task_incase,2023.2.2,None,2024-04-09 08h26.22.322222 +0530,
0,0,0,0,4,0,4,0,0,8,8,7,195.36479654100003,,,,,,,,,,,,,,,,,,,195.34644420800032,195.36479654100003,195.36479654100003,195.36479654100003,195.36479654100003,195.36479654100003,195.36479654100003,195.36479654100003,195.36479654100003,195.36479654100003,0.012429165999947145,195.65148216600028,sufficient_time,50,0,1250,[0.6022222222222222],[0.13555555555555557],[1],[0],[0],[0.28613858300013817],['deck_D'],195.65200158300013,195.6614759580002,198.6460031659999,198.66581350000024,pushkar,001,2024-04-09_08h26.10.966,IOWA_Gambling_Task_incase,2023.2.2,None,2024-04-09 08h26.22.322222 +0530,
0,0,0,0,4,0,4,0,0,9,9,6,198.66581350000024,,,,,,,,,,,,,,,,,,,198.6464086660003,198.66581350000024,198.66581350000024,198.66581350000024,198.66581350000024,198.66581350000024,198.66581350000024,198.66581350000024,198.66581350000024,198.66581350000024,-0.0009376250000059372,198.91375791600012,sufficient_time,50,0,1300,[0.6022222222222222],[0.13555555555555557],[1],[0],[0],[0.26194308300000557],['deck_D'],198.91428054100015,198.92306312500023,201.90708225000026,201.93681829100024,pushkar,001,2024-04-09_08h26.10.966,IOWA_Gambling_Task_incase,2023.2.2,None,2024-04-09 08h26.22.322222 +0530,
,,,,4,0,4,0,,,,,,,,,,,,,,,,,,,,,,,,,,,,,,,,,,,,,,,,,,,,,,,,,,,pushkar,001,2024-04-09_08h26.10.966,IOWA_Gambling_Task_incase,2023.2.2,None,2024-04-09 08h26.22.322222 +0530,
250,0,50,0,5,0,5,0,0,0,0,3,201.93681829100024,,,,,,,,,,,,,,,,,,,201.91910287500014,201.93681829100024,201.93681829100024,201.93681829100024,201.93681829100024,201.93681829100024,201.93681829100024,201.93681829100024,201.93681829100024,201.93681829100024,0.008551708000140934,202.4683695829999,sufficient_time,50,0,1350,[0.6011111111111112],[0.13666666666666666],[1],[0],[0],[0.5449068749999242],['deck_D'],202.46919079100007,202.4770968329999,205.46354691600027,205.48370479100004,pushkar,001,2024-04-09_08h26.10.966,IOWA_Gambling_Task_incase,2023.2.2,None,2024-04-09 08h26.22.322222 +0530,
250,0,50,0,5,0,5,0,0,1,1,1,205.48370479100004,,,,,,,,,,,,,,,,,,,205.463963875,205.48370479100004,205.48370479100004,205.48370479100004,205.48370479100004,205.48370479100004,205.48370479100004,205.48370479100004,205.48370479100004,205.48370479100004,-0.0006062499996914994,205.9079105830001,sufficient_time,50,0,1400,[0.6011111111111112],[0.13666666666666666],[1],[0],[0],[0.43856716700020115],['deck_D'],205.90844033300027,205.91367362500023,208.90740754099988,208.92946845799997,pushkar,001,2024-04-09_08h26.10.966,IOWA_Gambling_Task_incase,2023.2.2,None,2024-04-09 08h26.22.322222 +0530,
0,0,0,0,5,0,5,0,0,2,2,8,208.92946845799997,,,,,,,,,,,,,,,,,,,208.90792704100022,208.92946845799997,208.92946845799997,208.92946845799997,208.92946845799997,208.92946845799997,208.92946845799997,208.92946845799997,208.92946845799997,208.92946845799997,0.004918332999750419,209.66903270800003,sufficient_time,50,0,1450,[0.6011111111111112],[0.13666666666666666],[1],[0],[0],[0.7549992079998447],['deck_D'],209.66954783300025,209.67626550000023,212.6632669999999,212.6817741660002,pushkar,001,2024-04-09_08h26.10.966,IOWA_Gambling_Task_incase,2023.2.2,None,2024-04-09 08h26.22.322222 +0530,
250,0,50,0,5,0,5,0,0,3,3,4,212.6817741660002,,,,,,,,,,,,,,,,,,,212.66369079100014,212.6817741660002,212.6817741660002,212.6817741660002,212.6817741660002,212.6817741660002,212.6817741660002,212.6817741660002,212.6817741660002,212.6817741660002,0.012394708000101673,213.32496045800008,sufficient_time,50,0,1500,[0.6011111111111112],[0.13666666666666666],[1],[0],[0],[0.64262058300028],['deck_D'],213.32549908300007,213.3310784160003,216.3149101250001,216.3338637500001,pushkar,001,2024-04-09_08h26.10.966,IOWA_Gambling_Task_incase,2023.2.2,None,2024-04-09 08h26.22.322222 +0530,
0,0,0,0,5,0,5,0,0,4,4,5,216.3338637500001,,,,,,,,,,,,,,,,,,,216.31533170800003,216.3338637500001,216.3338637500001,216.3338637500001,216.3338637500001,216.3338637500001,216.3338637500001,216.3338637500001,216.3338637500001,216.3338637500001,0.008548083000277984,216.7247177500003,sufficient_time,50,0,1550,[0.6011111111111112],[0.13666666666666666],[1],[0],[0],[0.39027166599998964],['deck_D'],216.72525791599992,216.73033670800032,219.7131710409999,219.73176379100005,pushkar,001,2024-04-09_08h26.10.966,IOWA_Gambling_Task_incase,2023.2.2,None,2024-04-09 08h26.22.322222 +0530,
250,1250,50,250,5,0,5,0,0,5,5,0,219.73176379100005,,,,,,,,,,,,,,,,,,,219.7136017910002,219.73176379100005,219.73176379100005,219.73176379100005,219.73176379100005,219.73176379100005,219.73176379100005,219.73176379100005,219.73176379100005,219.73176379100005,0.0066745830004038,220.802015666,sufficient_time,50,250,1350,[0.5744444444444444],[0.12666666666666668],[1],[0],[0],[1.0697288750002372],['deck_D'],220.80253833300003,220.81161395800018,223.79741208299993,223.81644916599998,pushkar,001,2024-04-09_08h26.10.966,IOWA_Gambling_Task_incase,2023.2.2,None,2024-04-09 08h26.22.322222 +0530,
250,0,50,0,5,0,5,0,0,6,6,2,223.81644916599998,,,,,,,,,,,,,,,,,,,223.79781150000008,223.81644916599998,223.81644916599998,223.81644916599998,223.81644916599998,223.81644916599998,223.81644916599998,223.81644916599998,223.81644916599998,223.81644916599998,-0.0005777090000265162,224.36860920800018,sufficient_time,50,0,1400,[0.5744444444444444],[0.12666666666666668],[1],[0],[0],[0.5660342920000403],['deck_D'],224.36911116600004,224.37765987500006,227.36461891599993,227.3853091660003,pushkar,001,2024-04-09_08h26.10.966,IOWA_Gambling_Task_incase,2023.2.2,None,2024-04-09 08h26.22.322222 +0530,
0,0,0,0,5,0,5,0,0,7,7,9,227.3853091660003,,,,,,,,,,,,,,,,,,,227.36503600000015,227.3853091660003,227.3853091660003,227.3853091660003,227.3853091660003,227.3853091660003,227.3853091660003,227.3853091660003,227.3853091660003,227.3853091660003,0.0004441250002855668,228.69651341600002,sufficient_time,50,0,1450,[0.2544444444444444],[0.08222222222222222],[1],[0],[0],[1.3262525000000096],['deck_C'],228.69702104099997,228.70691504100023,231.6911217500001,231.71307808300025,pushkar,001,2024-04-09_08h26.10.966,IOWA_Gambling_Task_incase,2023.2.2,None,2024-04-09 08h26.22.322222 +0530,
0,0,0,0,5,0,5,0,0,8,8,6,231.71307808300025,,,,,,,,,,,,,,,,,,,231.69160983300026,231.71307808300025,231.71307808300025,231.71307808300025,231.71307808300025,231.71307808300025,231.71307808300025,231.71307808300025,231.71307808300025,231.71307808300025,-0.0003739170001608727,234.3266497499999,sufficient_time,50,0,1500,[0.2111111111111111],[0.11888888888888889],[1],[0],[0],[2.6292929999999615],['deck_C'],234.32721879100018,234.34043691600027,237.3245766250002,237.3451153330002,pushkar,001,2024-04-09_08h26.10.966,IOWA_Gambling_Task_incase,2023.2.2,None,2024-04-09 08h26.22.322222 +0530,
0,0,0,0,5,0,5,0,0,9,9,7,237.3451153330002,,,,,,,,,,,,,,,,,,,237.32491974999994,237.3451153330002,237.3451153330002,237.3451153330002,237.3451153330002,237.3451153330002,237.3451153330002,237.3451153330002,237.3451153330002,237.3451153330002,0.0027374999999665306,238.49169116600024,sufficient_time,50,0,1550,[0.24444444444444444],[0.12555555555555556],[1],[0],[0],[1.1610860410000896],['deck_C'],238.49221054100008,238.49719133300005,241.48037887500004,241.50844637499995,pushkar,001,2024-04-09_08h26.10.966,IOWA_Gambling_Task_incase,2023.2.2,None,2024-04-09 08h26.22.322222 +0530,
,,,,5,0,5,0,,,,,,,,,,,,,,,,,,,,,,,,,,,,,,,,,,,,,,,,,,,,,,,,,,,pushkar,001,2024-04-09_08h26.10.966,IOWA_Gambling_Task_incase,2023.2.2,None,2024-04-09 08h26.22.322222 +0530,
250,0,50,0,6,0,6,0,0,0,0,3,241.50844637499995,,,,,,,,,,,,,,,,,,,241.49130037500026,241.50844637499995,241.50844637499995,241.50844637499995,241.50844637499995,241.50844637499995,241.50844637499995,241.50844637499995,241.50844637499995,241.50844637499995,0.0029059590001452307,242.13080475000015,sufficient_time,50,50,1550,[0.20777777777777778],[0.20777777777777778],[1],[0],[0],[0.6350639580000461],['deck_C'],242.13171512500003,242.13983116600002,245.12486816599994,245.1395429160002,pushkar,001,2024-04-09_08h26.10.966,IOWA_Gambling_Task_incase,2023.2.2,None,2024-04-09 08h26.22.322222 +0530,
0,0,0,0,6,0,6,0,0,1,1,7,245.1395429160002,,,,,,,,,,,,,,,,,,,245.12521508300006,245.1395429160002,245.1395429160002,245.1395429160002,245.1395429160002,245.1395429160002,245.1395429160002,245.1395429160002,245.1395429160002,245.1395429160002,0.007967916999859881,245.44822654100017,sufficient_time,50,0,1600,[0.5811111111111111],[0.16],[1],[0],[0],[0.308136167000157],['deck_D'],245.44882091599993,245.45709983300003,248.44148083300024,248.46051179100004,pushkar,001,2024-04-09_08h26.10.966,IOWA_Gambling_Task_incase,2023.2.2,None,2024-04-09 08h26.22.322222 +0530,
0,0,0,0,6,0,6,0,0,2,2,8,248.46051179100004,,,,,,,,,,,,,,,,,,,248.44184058300016,248.46051179100004,248.46051179100004,248.46051179100004,248.46051179100004,248.46051179100004,248.46051179100004,248.46051179100004,248.46051179100004,248.46051179100004,0.011868042000060086,248.8102320830003,sufficient_time,100,0,1700,[-0.22777777777777777],[0.07222222222222222],[1],[0],[0],[0.3491617919999044],['deck_B'],248.8107803329999,248.82407950000015,251.80832333300032,251.8303470830001,pushkar,001,2024-04-09_08h26.10.966,IOWA_Gambling_Task_incase,2023.2.2,None,2024-04-09 08h26.22.322222 +0530,
0,0,0,0,6,0,6,0,0,3,3,9,251.8303470830001,,,,,,,,,,,,,,,,,,,251.80876500000022,251.8303470830001,251.8303470830001,251.8303470830001,251.8303470830001,251.8303470830001,251.8303470830001,251.8303470830001,251.8303470830001,251.8303470830001,0.0032130409999808762,252.13168541599998,sufficient_time,100,0,1800,[-0.22444444444444445],[0.07222222222222222],[1],[0],[0],[0.31700579200014545],['deck_B'],252.13219316599998,252.141165,255.12512620799998,255.14528125000015,pushkar,001,2024-04-09_08h26.10.966,IOWA_Gambling_Task_incase,2023.2.2,None,2024-04-09 08h26.22.322222 +0530,
0,0,0,0,6,0,6,0,0,4,4,6,255.14528125000015,,,,,,,,,,,,,,,,,,,255.1255690410003,255.14528125000015,255.14528125000015,255.14528125000015,255.14528125000015,255.14528125000015,255.14528125000015,255.14528125000015,255.14528125000015,255.14528125000015,0.013264457999866863,255.44791483300014,sufficient_time,100,0,1900,[-0.20222222222222222],[0.10555555555555556],[1],[0],[0],[0.3019087079997007],['deck_B'],255.44844825000018,255.45743808299994,258.4420368750002,258.4633656660003,pushkar,001,2024-04-09_08h26.10.966,IOWA_Gambling_Task_incase,2023.2.2,None,2024-04-09 08h26.22.322222 +0530,
250,1250,50,250,6,0,6,0,0,5,5,0,258.4633656660003,,,,,,,,,,,,,,,,,,,258.4424911250003,258.4633656660003,258.4633656660003,258.4633656660003,258.4633656660003,258.4633656660003,258.4633656660003,258.4633656660003,258.4633656660003,258.4633656660003,0.015153583000028448,258.7695089160002,sufficient_time,100,1250,750,[-0.19555555555555557],[0.09555555555555556],[1],[0],[0],[0.3055432920000385],['deck_B'],258.77000275,258.77877208300015,261.76396079100004,261.7819421250001,pushkar,001,2024-04-09_08h26.10.966,IOWA_Gambling_Task_incase,2023.2.2,None,2024-04-09 08h26.22.322222 +0530,
0,0,0,0,6,0,6,0,0,6,6,5,261.7819421250001,,,,,,,,,,,,,,,,,,,261.7643239160002,261.7819421250001,261.7819421250001,261.7819421250001,261.7819421250001,261.7819421250001,261.7819421250001,261.7819421250001,261.7819421250001,261.7819421250001,0.01210795799988773,262.3271589579999,sufficient_time,100,0,850,[-0.20555555555555555],[0.07444444444444444],[1],[0],[0],[0.5446882920000462],['deck_B'],262.3276785830003,262.34100612500015,265.32543591600006,265.34717441600014,pushkar,001,2024-04-09_08h26.10.966,IOWA_Gambling_Task_incase,2023.2.2,None,2024-04-09 08h26.22.322222 +0530,
250,0,50,0,6,0,6,0,0,7,7,1,265.34717441600014,,,,,,,,,,,,,,,,,,,265.3258832910001,265.34717441600014,265.34717441600014,265.34717441600014,265.34717441600014,265.34717441600014,265.34717441600014,265.34717441600014,265.34717441600014,265.34717441600014,0.0028224160000718257,265.620629,sufficient_time,100,0,950,[-0.20555555555555555],[0.07444444444444444],[1],[0],[0],[0.2894845000000714],['deck_B'],265.6211242500003,265.6278940830002,268.6154407080003,268.6349072910002,pushkar,001,2024-04-09_08h26.10.966,IOWA_Gambling_Task_incase,2023.2.2,None,2024-04-09 08h26.22.322222 +0530,
250,0,50,0,6,0,6,0,0,8,8,2,268.6349072910002,,,,,,,,,,,,,,,,,,,268.615842833,268.6349072910002,268.6349072910002,268.6349072910002,268.6349072910002,268.6349072910002,268.6349072910002,268.6349072910002,268.6349072910002,268.6349072910002,-0.0009110420000979502,268.8867996250001,sufficient_time,100,0,1050,[-0.20555555555555555],[0.07444444444444444],[1],[0],[0],[0.26595454199969026],['deck_B'],268.8873041659999,268.90825837500006,271.891770875,,pushkar,001,2024-04-09_08h26.10.966,IOWA_Gambling_Task_incase,2023.2.2,None,2024-04-09 08h26.22.322222 +0530,
250,0,50,0,6,0,6,0,0,9,9,4,271.91242525000007,,,,,,,,,,,,,,,,,,,271.8921652080003,271.91242525000007,271.91242525000007,271.91242525000007,271.91242525000007,271.91242525000007,271.91242525000007,271.91242525000007,271.91242525000007,271.91242525000007,0.009419874999821332,272.23225708300015,sufficient_time,100,0,1150,[-0.20555555555555555],[0.07444444444444444],[1],[0],[0],[0.3347861249999369],['deck_B'],272.23276450000003,272.24118320800017,275.22569991599994,275.25446812500013,pushkar,001,2024-04-09_08h26.10.966,IOWA_Gambling_Task_incase,2023.2.2,None,2024-04-09 08h26.22.322222 +0530,
,,,,6,0,6,0,,,,,,,,,,,,,,,,,,,,,,,,,,,,,,,,,,,,,,,,,,,,,,,,,,,pushkar,001,2024-04-09_08h26.10.966,IOWA_Gambling_Task_incase,2023.2.2,None,2024-04-09 08h26.22.322222 +0530,
0,0,0,0,7,0,7,0,0,0,0,7,275.25446812500013,,,,,,,,,,,,,,,,,,,275.2361530410003,275.25446812500013,275.25446812500013,275.25446812500013,275.25446812500013,275.25446812500013,275.25446812500013,275.25446812500013,275.25446812500013,275.25446812500013,0.006974541999625217,275.5313556660003,sufficient_time,50,0,1200,[0.20222222222222222],[0.051111111111111114],[1],[0],[0],[0.2910232089998317],['deck_C'],275.53225825000027,275.5407021660003,278.5258152910001,278.54616512500024,pushkar,001,2024-04-09_08h26.10.966,IOWA_Gambling_Task_incase,2023.2.2,None,2024-04-09 08h26.22.322222 +0530,
0,0,0,0,7,0,7,0,0,1,1,5,278.54616512500024,,,,,,,,,,,,,,,,,,,278.52627383300023,278.54616512500024,278.54616512500024,278.54616512500024,278.54616512500024,278.54616512500024,278.54616512500024,278.54616512500024,278.54616512500024,278.54616512500024,0.014080124999964028,278.8867439159999,sufficient_time,100,0,1300,[-0.21444444444444444],[0.06333333333333334],[1],[0],[0],[0.3400154579999253],['deck_B'],278.88725779100014,278.89579604100027,281.8819324159999,281.9019345830002,pushkar,001,2024-04-09_08h26.10.966,IOWA_Gambling_Task_incase,2023.2.2,None,2024-04-09 08h26.22.322222 +0530,
0,0,0,0,7,0,7,0,0,2,2,6,281.9019345830002,,,,,,,,,,,,,,,,,,,281.8823419999999,281.9019345830002,281.9019345830002,281.9019345830002,281.9019345830002,281.9019345830002,281.9019345830002,281.9019345830002,281.9019345830002,281.9019345830002,-0.00041162500019709114,282.182868375,sufficient_time,100,0,1400,[-0.21222222222222223],[0.06222222222222222],[1],[0],[0],[0.29525133300012385],['deck_B'],282.18338941599995,282.19130300000006,285.17548516600027,285.1960583750001,pushkar,001,2024-04-09_08h26.10.966,IOWA_Gambling_Task_incase,2023.2.2,None,2024-04-09 08h26.22.322222 +0530,
250,0,50,0,7,0,7,0,0,3,3,3,285.1960583750001,,,,,,,,,,,,,,,,,,,285.1759031659999,285.1960583750001,285.1960583750001,285.1960583750001,285.1960583750001,285.1960583750001,285.1960583750001,285.1960583750001,285.1960583750001,285.1960583750001,0.01284104100022887,285.45365970800003,sufficient_time,100,0,1500,[-0.21222222222222223],[0.06222222222222222],[1],[0],[0],[0.2570489169997927],['deck_B'],285.45417745800023,285.47486574999994,288.4587381250003,,pushkar,001,2024-04-09_08h26.10.966,IOWA_Gambling_Task_incase,2023.2.2,None,2024-04-09 08h26.22.322222 +0530,
250,0,50,0,7,0,7,0,0,4,4,1,288.480175916,,,,,,,,,,,,,,,,,,,288.45918058300003,288.480175916,288.480175916,288.480175916,288.480175916,288.480175916,288.480175916,288.480175916,288.480175916,288.480175916,0.009591500000169617,288.78255445800005,sufficient_time,100,0,1600,[-0.21222222222222223],[0.06222222222222222],[1],[0],[0],[0.31810258399991653],['deck_B'],288.78305045800016,288.7917842500001,291.7761546659999,291.79692279100027,pushkar,001,2024-04-09_08h26.10.966,IOWA_Gambling_Task_incase,2023.2.2,None,2024-04-09 08h26.22.322222 +0530,
250,0,50,0,7,0,7,0,0,5,5,2,291.79692279100027,,,,,,,,,,,,,,,,,,,291.7765669999999,291.79692279100027,291.79692279100027,291.79692279100027,291.79692279100027,291.79692279100027,291.79692279100027,291.79692279100027,291.79692279100027,291.79692279100027,0.014045666999663808,292.1152240000001,sufficient_time,100,0,1700,[-0.20777777777777778],[0.052222222222222225],[1],[0],[0],[0.31776099999979124],['deck_B'],292.1157561250002,292.1249284999999,295.1093102079999,295.1270400829999,pushkar,001,2024-04-09_08h26.10.966,IOWA_Gambling_Task_incase,2023.2.2,None,2024-04-09 08h26.22.322222 +0530,
0,0,0,0,7,0,7,0,0,6,6,9,295.1270400829999,,,,,,,,,,,,,,,,,,,295.1096246249999,295.1270400829999,295.1270400829999,295.1270400829999,295.1270400829999,295.1270400829999,295.1270400829999,295.1270400829999,295.1270400829999,295.1270400829999,0.011441083000136132,295.43220195799995,sufficient_time,50,0,1750,[0.14],[0.10444444444444445],[1],[0],[0],[0.30461412500017104],['deck_C'],295.4327571660001,295.44158474999995,298.4261320830001,298.44534358300007,pushkar,001,2024-04-09_08h26.10.966,IOWA_Gambling_Task_incase,2023.2.2,None,2024-04-09 08h26.22.322222 +0530,
250,1250,50,250,7,0,7,0,0,7,7,0,298.44534358300007,,,,,,,,,,,,,,,,,,,298.426549666,298.44534358300007,298.44534358300007,298.44534358300007,298.44534358300007,298.44534358300007,298.44534358300007,298.44534358300007,298.44534358300007,298.44534358300007,0.01274483399993187,298.7485529579999,sufficient_time,100,1250,600,[-0.1322222222222222],[0.06111111111111111],[1],[0],[0],[0.302655749999758],['deck_B'],298.74910820800005,298.75786183300033,301.7423089580002,301.762041041,pushkar,001,2024-04-09_08h26.10.966,IOWA_Gambling_Task_incase,2023.2.2,None,2024-04-09 08h26.22.322222 +0530,
0,0,0,0,7,0,7,0,0,8,8,8,301.762041041,,,,,,,,,,,,,,,,,,,301.7427444160003,301.762041041,301.762041041,301.762041041,301.762041041,301.762041041,301.762041041,301.762041041,301.762041041,301.762041041,0.013090583000121114,302.48785120799994,sufficient_time,100,0,700,[-0.15],[0.06111111111111111],[1],[0],[0],[0.7252717920000578],['deck_B'],302.48834424999995,302.4959102500002,305.4822920830002,305.5007355830003,pushkar,001,2024-04-09_08h26.10.966,IOWA_Gambling_Task_incase,2023.2.2,None,2024-04-09 08h26.22.322222 +0530,
250,0,50,0,7,0,7,0,0,9,9,4,305.5007355830003,,,,,,,,,,,,,,,,,,,305.4827115000003,305.5007355830003,305.5007355830003,305.5007355830003,305.5007355830003,305.5007355830003,305.5007355830003,305.5007355830003,305.5007355830003,305.5007355830003,0.012568375000228116,309.04934270800004,sufficient_time,50,0,750,[0.5388888888888889],[0.14888888888888888],[1],[0],[0],[3.5479792079995605],['deck_D'],309.04987633300016,309.05848366600003,312.0431182080001,312.07251025000005,pushkar,001,2024-04-09_08h26.10.966,IOWA_Gambling_Task_incase,2023.2.2,None,2024-04-09 08h26.22.322222 +0530,
,,,,7,0,7,0,,,,,,,,,,,,,,,,,,,,,,,,,,,,,,,,,,,,,,,,,,,,,,,,,,,pushkar,001,2024-04-09_08h26.10.966,IOWA_Gambling_Task_incase,2023.2.2,None,2024-04-09 08h26.22.322222 +0530,
250,0,50,0,8,0,8,0,0,0,0,2,312.07251025000005,,,,,,,,,,,,,,,,,,,312.0543848330003,312.07251025000005,312.07251025000005,312.07251025000005,312.07251025000005,312.07251025000005,312.07251025000005,312.07251025000005,312.07251025000005,312.07251025000005,0.008172917000138114,312.371371791,sufficient_time,50,0,800,[0.54],[0.14777777777777779],[1],[0],[0],[0.31269491600005495],['deck_D'],312.3721932080002,312.37903095799993,315.36605983300024,315.384687708,pushkar,001,2024-04-09_08h26.10.966,IOWA_Gambling_Task_incase,2023.2.2,None,2024-04-09 08h26.22.322222 +0530,
250,0,50,0,8,0,8,0,0,1,1,3,315.384687708,,,,,,,,,,,,,,,,,,,315.36647491600024,315.384687708,315.384687708,315.384687708,315.384687708,315.384687708,315.384687708,315.384687708,315.384687708,315.384687708,0.012672708000081911,315.80457716599994,sufficient_time,50,0,850,[0.5411111111111111],[0.14666666666666667],[1],[0],[0],[0.4193288750002466],['deck_D'],315.8050978330002,315.8120429159999,318.7991260829999,318.8184571659999,pushkar,001,2024-04-09_08h26.10.966,IOWA_Gambling_Task_incase,2023.2.2,None,2024-04-09 08h26.22.322222 +0530,
0,0,0,0,8,0,8,0,0,2,2,7,318.8184571659999,,,,,,,,,,,,,,,,,,,318.7995275410003,318.8184571659999,318.8184571659999,318.8184571659999,318.8184571659999,318.8184571659999,318.8184571659999,318.8184571659999,318.8184571659999,318.8184571659999,0.013527082999644335,319.232448791,sufficient_time,50,0,900,[0.54],[0.14777777777777779],[1],[0],[0],[0.41338233299984495],['deck_D'],319.2329494159999,319.24229612499994,322.22611187500024,322.2460102499999,pushkar,001,2024-04-09_08h26.10.966,IOWA_Gambling_Task_incase,2023.2.2,None,2024-04-09 08h26.22.322222 +0530,
250,0,50,0,8,0,8,0,0,3,3,1,322.2460102499999,,,,,,,,,,,,,,,,,,,322.2265347910002,322.2460102499999,322.2460102499999,322.2460102499999,322.2460102499999,322.2460102499999,322.2460102499999,322.2460102499999,322.2460102499999,322.2460102499999,0.013218915999914316,322.5837098330003,sufficient_time,50,0,950,[0.5411111111111111],[0.14666666666666667],[1],[0],[0],[0.3371441250001226],['deck_D'],322.58420720799995,322.5921469160003,325.576785666,325.5960314580002,pushkar,001,2024-04-09_08h26.10.966,IOWA_Gambling_Task_incase,2023.2.2,None,2024-04-09 08h26.22.322222 +0530,
250,1250,50,250,8,0,8,0,0,4,4,0,325.5960314580002,,,,,,,,,,,,,,,,,,,325.5772017080003,325.5960314580002,325.5960314580002,325.5960314580002,325.5960314580002,325.5960314580002,325.5960314580002,325.5960314580002,325.5960314580002,325.5960314580002,0.011997916000382247,325.91708633300004,sufficient_time,50,250,750,[0.5411111111111111],[0.14555555555555555],[1],[0],[0],[0.3203918750000412],['deck_D'],325.91762070799996,325.92576654100003,328.9101103329999,328.930412791,pushkar,001,2024-04-09_08h26.10.966,IOWA_Gambling_Task_incase,2023.2.2,None,2024-04-09 08h26.22.322222 +0530,
0,0,0,0,8,0,8,0,0,5,5,6,328.930412791,,,,,,,,,,,,,,,,,,,328.9105369160002,328.930412791,328.930412791,328.930412791,328.930412791,328.930412791,328.930412791,328.930412791,328.930412791,328.930412791,0.01297675000023446,329.54951387500023,sufficient_time,50,0,800,[0.2833333333333333],[0.10222222222222223],[1],[0],[0],[0.6184745000000476],['deck_C'],329.55003975,329.558934875,332.5446715000003,332.5653581659999,pushkar,001,2024-04-09_08h26.10.966,IOWA_Gambling_Task_incase,2023.2.2,None,2024-04-09 08h26.22.322222 +0530,
0,0,0,0,8,0,8,0,0,6,6,9,332.5653581659999,,,,,,,,,,,,,,,,,,,332.54507812500015,332.5653581659999,332.5653581659999,332.5653581659999,332.5653581659999,332.5653581659999,332.5653581659999,332.5653581659999,332.5653581659999,332.5653581659999,-0.00012862499988841591,333.33861875,sufficient_time,50,0,850,[0.2833333333333333],[0.10222222222222223],[1],[0],[0],[0.7879881250000835],['deck_C'],333.3391180829999,333.34644100000014,336.332505375,336.3509113330001,pushkar,001,2024-04-09_08h26.10.966,IOWA_Gambling_Task_incase,2023.2.2,None,2024-04-09 08h26.22.322222 +0530,
0,0,0,0,8,0,8,0,0,7,7,5,336.3509113330001,,,,,,,,,,,,,,,,,,,336.3329181250001,336.3509113330001,336.3509113330001,336.3509113330001,336.3509113330001,336.3509113330001,336.3509113330001,336.3509113330001,336.3509113330001,336.3509113330001,0.011965457999849605,336.84935695800004,sufficient_time,50,0,900,[0.27444444444444444],[0.10333333333333333],[1],[0],[0],[0.4978482920000715],['deck_C'],336.8498938749999,336.8593433750002,339.84470112500003,339.86547904100007,pushkar,001,2024-04-09_08h26.10.966,IOWA_Gambling_Task_incase,2023.2.2,None,2024-04-09 08h26.22.322222 +0530,
0,0,0,0,8,0,8,0,0,8,8,8,339.86547904100007,,,,,,,,,,,,,,,,,,,339.84510075000026,339.86547904100007,339.86547904100007,339.86547904100007,339.86547904100007,339.86547904100007,339.86547904100007,339.86547904100007,339.86547904100007,339.86547904100007,-0.00026475000004211324,340.5716171250001,sufficient_time,50,0,950,[0.2511111111111111],[0.10555555555555556],[1],[0],[0],[0.721334874999684],['deck_C'],340.5721322909999,340.59317920800004,343.5779375410002,,pushkar,001,2024-04-09_08h26.10.966,IOWA_Gambling_Task_incase,2023.2.2,None,2024-04-09 08h26.22.322222 +0530,
250,0,50,0,8,0,8,0,0,9,9,4,343.59857541600013,,,,,,,,,,,,,,,,,,,343.5783335410001,343.59857541600013,343.59857541600013,343.59857541600013,343.59857541600013,343.59857541600013,343.59857541600013,343.59857541600013,343.59857541600013,343.59857541600013,0.010724167000262241,344.0500107080002,sufficient_time,50,50,950,[0.2511111111111111],[0.10555555555555556],[1],[0],[0],[0.46638908300019466],['deck_C'],344.05052179099994,344.0591964580003,347.0434190410001,347.06973233300005,pushkar,001,2024-04-09_08h26.10.966,IOWA_Gambling_Task_incase,2023.2.2,None,2024-04-09 08h26.22.322222 +0530,
,,,,8,0,8,0,,,,,,,,,,,,,,,,,,,,,,,,,,,,,,,,,,,,,,,,,,,,,,,,,,,pushkar,001,2024-04-09_08h26.10.966,IOWA_Gambling_Task_incase,2023.2.2,None,2024-04-09 08h26.22.322222 +0530,
0,0,0,0,9,0,9,0,0,0,0,6,347.06973233300005,,,,,,,,,,,,,,,,,,,347.0546156250002,347.06973233300005,347.06973233300005,347.06973233300005,347.06973233300005,347.06973233300005,347.06973233300005,347.06973233300005,347.06973233300005,347.06973233300005,0.004162791999988258,347.711151125,sufficient_time,50,0,1000,[0.2511111111111111],[0.10555555555555556],[1],[0],[0],[0.6557653750001009],['deck_C'],347.712021541,347.72055379099993,350.71026725,350.7318113330002,pushkar,001,2024-04-09_08h26.10.966,IOWA_Gambling_Task_incase,2023.2.2,None,2024-04-09 08h26.22.322222 +0530,
250,0,50,0,9,0,9,0,0,1,1,3,350.7318113330002,,,,,,,,,,,,,,,,,,,350.71068137500015,350.7318113330002,350.7318113330002,350.7318113330002,350.7318113330002,350.7318113330002,350.7318113330002,350.7318113330002,350.7318113330002,350.7318113330002,0.00326858300013555,351.8779407910001,sufficient_time,50,50,1000,[0.2511111111111111],[0.10555555555555556],[1],[0],[0],[1.1619127500002833],['deck_C'],351.8784497910001,351.8863321250001,354.877102208,354.8936403749999,pushkar,001,2024-04-09_08h26.10.966,IOWA_Gambling_Task_incase,2023.2.2,None,2024-04-09 08h26.22.322222 +0530,
0,0,0,0,9,0,9,0,0,2,2,5,354.8936403749999,,,,,,,,,,,,,,,,,,,354.87751875000004,354.8936403749999,354.8936403749999,354.8936403749999,354.8936403749999,354.8936403749999,354.8936403749999,354.8936403749999,354.8936403749999,354.8936403749999,-0.0008627500001239241,358.62930600000027,sufficient_time,100,0,1100,[-0.16666666666666666],[0.06888888888888889],[1],[0],[0],[3.750955334000082],['deck_B'],358.62983862500005,358.6431708330001,361.62760425000033,361.64779145800003,pushkar,001,2024-04-09_08h26.10.966,IOWA_Gambling_Task_incase,2023.2.2,None,2024-04-09 08h26.22.322222 +0530,
250,0,50,0,9,0,9,0,0,3,3,4,361.64779145800003,,,,,,,,,,,,,,,,,,,361.6280418330002,361.64779145800003,361.64779145800003,361.64779145800003,361.64779145800003,361.64779145800003,361.64779145800003,361.64779145800003,361.64779145800003,361.64779145800003,0.0027021249998142594,362.133377916,sufficient_time,100,0,1200,[-0.16666666666666666],[0.06888888888888889],[1],[0],[0],[0.5001795000002858],['deck_B'],362.13388404100033,362.1434192500001,365.1276217499999,365.15162016600016,pushkar,001,2024-04-09_08h26.10.966,IOWA_Gambling_Task_incase,2023.2.2,None,2024-04-09 08h26.22.322222 +0530,
0,0,0,0,9,0,9,0,0,4,4,8,365.15162016600016,,,,,,,,,,,,,,,,,,,365.12806112499993,365.15162016600016,365.15162016600016,365.15162016600016,365.15162016600016,365.15162016600016,365.15162016600016,365.15162016600016,365.15162016600016,365.15162016600016,-0.0006027919998814468,365.66673658300033,sufficient_time,100,0,1300,[-0.5233333333333333],[0.04777777777777778],[1],[0],[0],[0.5328326659996492],['deck_A'],365.6672347910003,365.6765864160002,368.66116816600015,368.6807201249999,pushkar,001,2024-04-09_08h26.10.966,IOWA_Gambling_Task_incase,2023.2.2,None,2024-04-09 08h26.22.322222 +0530,
250,1250,50,250,9,0,9,0,0,5,5,0,368.6807201249999,,,,,,,,,,,,,,,,,,,368.66158829100004,368.6807201249999,368.6807201249999,368.6807201249999,368.6807201249999,368.6807201249999,368.6807201249999,368.6807201249999,368.6807201249999,368.6807201249999,0.013645250000081433,369.033477208,sufficient_time,100,1250,150,[-0.20666666666666667],[0.04],[1],[0],[0],[0.3521902079996835],['deck_B'],369.03397937499994,369.04325987500033,372.02787508300025,372.0473701660003,pushkar,001,2024-04-09_08h26.10.966,IOWA_Gambling_Task_incase,2023.2.2,None,2024-04-09 08h26.22.322222 +0530,
250,0,50,0,9,0,9,0,0,6,6,1,372.0473701660003,,,,,,,,,,,,,,,,,,,372.028278708,372.0473701660003,372.0473701660003,372.0473701660003,372.0473701660003,372.0473701660003,372.0473701660003,372.0473701660003,372.0473701660003,372.0473701660003,0.01357041700021,373.4170094159999,sufficient_time,100,250,0,[-0.6144444444444445],[0.04555555555555556],[1],[0],[0],[1.369040957999914],['deck_A'],373.4175641249999,373.4266471250003,376.4114055,376.4308148750001,pushkar,001,2024-04-09_08h26.10.966,IOWA_Gambling_Task_incase,2023.2.2,None,2024-04-09 08h26.22.322222 +0530,
0,0,0,0,9,0,9,0,0,7,7,7,376.4308148750001,,,,,,,,,,,,,,,,,,,376.4118386660002,376.4308148750001,376.4308148750001,376.4308148750001,376.4308148750001,376.4308148750001,376.4308148750001,376.4308148750001,376.4308148750001,376.4308148750001,0.013423708000118495,376.85612120800033,sufficient_time,50,0,50,[0.3022222222222222],[0.09888888888888889],[1],[0],[0],[0.4244050829997832],['deck_C'],376.85662137500003,376.86466391600015,379.85080291600025,379.8710872910001,pushkar,001,2024-04-09_08h26.10.966,IOWA_Gambling_Task_incase,2023.2.2,None,2024-04-09 08h26.22.322222 +0530,
0,0,0,0,9,0,9,0,0,8,8,9,379.8710872910001,,,,,,,,,,,,,,,,,,,379.8512205410002,379.8710872910001,379.8710872910001,379.8710872910001,379.8710872910001,379.8710872910001,379.8710872910001,379.8710872910001,379.8710872910001,379.8710872910001,-0.0008655829997223918,380.35597179100023,sufficient_time,50,0,100,[0.3022222222222222],[0.09888888888888889],[1],[0],[0],[0.4995498329999464],['deck_C'],380.35647533300016,380.376979958,383.361963458,,pushkar,001,2024-04-09_08h26.10.966,IOWA_Gambling_Task_incase,2023.2.2,None,2024-04-09 08h26.22.322222 +0530,
250,0,50,0,9,0,9,0,0,9,9,2,383.3834676250003,,,,,,,,,,,,,,,,,,,383.36238787499997,383.3834676250003,383.3834676250003,383.3834676250003,383.3834676250003,383.3834676250003,383.3834676250003,383.3834676250003,383.3834676250003,383.3834676250003,0.010441500000069937,384.0228943750003,sufficient_time,50,0,150,[0.5244444444444445],[0.15888888888888889],[1],[0],[0],[0.655323457999657],['deck_D'],384.0233895000001,384.031378916,387.01776695800027,387.02765020800007,pushkar,001,2024-04-09_08h26.10.966,IOWA_Gambling_Task_incase,2023.2.2,None,2024-04-09 08h26.22.322222 +0530,
,,,,9,0,9,0,,,,,,,,,,,,,,,,,,,,,,,,,,,,,,,,,,,,,,,,,,,,,,,,,,,pushkar,001,2024-04-09_08h26.10.966,IOWA_Gambling_Task_incase,2023.2.2,None,2024-04-09 08h26.22.322222 +0530,
