deck_A_loss,deck_B_loss,deck_C_loss,deck_D_loss,trials_2.thisRepN,trials_2.thisTrialN,trials_2.thisN,trials_2.thisIndex,trials.thisRepN,trials.thisTrialN,trials.thisN,trials.thisIndex,thisRow.t,notes,defining_variables.started,defining_variables.stopped,Instructions.started,key_instruct.started,Instructions.stopped,key_instruct.keys,key_instruct.rt,key_instruct.duration,time_instructions.started,key_instruct_3.started,time_instructions.stopped,key_instruct_3.keys,key_instruct_3.rt,key_instruct_3.duration,countdown.started,text_countdown.started,countdown.stopped,Task.started,current_total.started,deck_A.started,deck_B.started,deck_C.started,deck_D.started,deck_A_label.started,deck_B_label.started,deck_C_label.started,deck_D_label.started,mouse.started,Task.stopped,condition,reward,loss,total,mouse.x,mouse.y,mouse.leftButton,mouse.midButton,mouse.rightButton,mouse.time,mouse.clicked_name,gamble_result.started,text.started,gamble_result.stopped,text.stopped,participant,session,date,expName,psychopyVersion,frameRate,expStart
,,,,,,,,,,,,,,0.104366791,0.104810416,0.104824083,0.138023916,7.868752583,space,7.6983615,None,,,,,,,,,,,,,,,,,,,,,,,,,,,,,,,,,,,,,swara,1,2024-04-09_08h26.10.966,IOWA_Gambling_Task_incase,2023.2.2,None,2024-04-09 08h26.22.322222 +0530
,,,,,,,,,,,,,,,,,,,,,,7.868792666,7.913985875,14.15938192,space,6.244049917,None,,,,,,,,,,,,,,,,,,,,,,,,,,,,,,,swara,1,2024-04-09_08h26.10.966,IOWA_Gambling_Task_incase,2023.2.2,None,2024-04-09 08h26.22.322222 +0530
250,0,50,0,0,0,0,0,0,0,0,3,24.21374296,,,,,,,,,,,,,,,,14.15942396,14.19564667,24.16872558,24.18725033,24.21374296,24.21374296,24.21374296,24.21374296,24.21374296,24.21374296,24.21374296,24.21374296,24.21374296,0.037894416,25.38149583,sufficient_time,100,250,1850,[-0.5977777777777777],[0.06444444444444444],[1],[0],[0],[1.1835176249996948],['deck_A'],25.38243433,25.39320325,28.38537083,,swara,1,2024-04-09_08h26.10.966,IOWA_Gambling_Task_incase,2023.2.2,None,2024-04-09 08h26.22.322222 +0530
0,0,0,0,0,0,0,0,0,1,1,8,28.40464604,,,,,,,,,,,,,,,,,,,28.38571454,28.40464604,28.40464604,28.40464604,28.40464604,28.40464604,28.40464604,28.40464604,28.40464604,28.40464604,0.007770791,29.13767233,sufficient_time,100,0,1950,[-0.23333333333333334],[0.03222222222222222],[1],[0],[0],[0.7467895830000089],['deck_B'],29.13818642,29.15156233,32.13601513,32.15752479,swara,1,2024-04-09_08h26.10.966,IOWA_Gambling_Task_incase,2023.2.2,None,2024-04-09 08h26.22.322222 +0530
250,1250,50,250,0,0,0,0,0,2,2,0,32.15752479,,,,,,,,,,,,,,,,,,,32.13643796,32.15752479,32.15752479,32.15752479,32.15752479,32.15752479,32.15752479,32.15752479,32.15752479,32.15752479,0.003820459,32.83018438,sufficient_time,50,50,1950,[0.11555555555555555],[0.024444444444444446],[1],[0],[0],[0.6875145829999383],['deck_C'],32.83069117,32.83971742,35.82551492,35.84063763,swara,1,2024-04-09_08h26.10.966,IOWA_Gambling_Task_incase,2023.2.2,None,2024-04-09 08h26.22.322222 +0530
250,0,50,0,0,0,0,0,0,3,3,4,35.84063763,,,,,,,,,,,,,,,,,,,35.82589125,35.84063763,35.84063763,35.84063763,35.84063763,35.84063763,35.84063763,35.84063763,35.84063763,35.84063763,0.010089375,36.16355429,sufficient_time,50,0,2000,[0.5522222222222222],[0.10555555555555556],[1],[0],[0],[0.32239795800023785],['deck_D'],36.16408583,36.17251696,39.15936158,39.17919025,swara,1,2024-04-09_08h26.10.966,IOWA_Gambling_Task_incase,2023.2.2,None,2024-04-09 08h26.22.322222 +0530
0,0,0,0,0,0,0,0,0,4,4,9,39.17919025,,,,,,,,,,,,,,,,,,,39.15976817,39.17919025,39.17919025,39.17919025,39.17919025,39.17919025,39.17919025,39.17919025,39.17919025,39.17919025,0.000307042,39.48774175,sufficient_time,50,0,2050,[0.1988888888888889],[0.052222222222222225],[1],[0],[0],[0.3226755000000594],['deck_C'],39.48824333,39.49382629,42.47702833,42.49569404,swara,1,2024-04-09_08h26.10.966,IOWA_Gambling_Task_incase,2023.2.2,None,2024-04-09 08h26.22.322222 +0530
0,0,0,0,0,0,0,0,0,5,5,7,42.49569404,,,,,,,,,,,,,,,,,,,42.47744525,42.49569404,42.49569404,42.49569404,42.49569404,42.49569404,42.49569404,42.49569404,42.49569404,42.49569404,0.007637292,44.02090725,sufficient_time,100,0,2150,[-0.2511111111111111],[0.06666666666666667],[1],[0],[0],[1.5246212910001304],['deck_B'],44.02143796,44.02946563,47.01917796,47.03944721,swara,1,2024-04-09_08h26.10.966,IOWA_Gambling_Task_incase,2023.2.2,None,2024-04-09 08h26.22.322222 +0530
0,0,0,0,0,0,0,0,0,6,6,6,47.03944721,,,,,,,,,,,,,,,,,,,47.01958004,47.03944721,47.03944721,47.03944721,47.03944721,47.03944721,47.03944721,47.03944721,47.03944721,47.03944721,0.002725625,47.30922413,sufficient_time,100,0,2250,[-0.2511111111111111],[0.06666666666666667],[1],[0],[0],[0.28437374999975873],['deck_B'],47.30976767,47.31909613,50.30300508,50.32322525,swara,1,2024-04-09_08h26.10.966,IOWA_Gambling_Task_incase,2023.2.2,None,2024-04-09 08h26.22.322222 +0530
0,0,0,0,0,0,0,0,0,7,7,5,50.32322525,,,,,,,,,,,,,,,,,,,50.30342571,50.32322525,50.32322525,50.32322525,50.32322525,50.32322525,50.32322525,50.32322525,50.32322525,50.32322525,0.013631208,50.81367604,sufficient_time,100,0,2350,[-0.24666666666666667],[0.06666666666666667],[1],[0],[0],[0.4898130830001719],['deck_B'],50.814194,50.81925475,53.80335029,53.82499388,swara,1,2024-04-09_08h26.10.966,IOWA_Gambling_Task_incase,2023.2.2,None,2024-04-09 08h26.22.322222 +0530
250,0,50,0,0,0,0,0,0,8,8,2,53.82499388,,,,,,,,,,,,,,,,,,,53.80377929,53.82499388,53.82499388,53.82499388,53.82499388,53.82499388,53.82499388,53.82499388,53.82499388,53.82499388,0.010986292,54.17068212,sufficient_time,100,0,2450,[-0.24666666666666667],[0.06666666666666667],[1],[0],[0],[0.3450810409999576],['deck_B'],54.17118258,54.17626525,57.16054738,57.18019342,swara,1,2024-04-09_08h26.10.966,IOWA_Gambling_Task_incase,2023.2.2,None,2024-04-09 08h26.22.322222 +0530
250,0,50,0,0,0,0,0,0,9,9,1,57.18019342,,,,,,,,,,,,,,,,,,,57.16089563,57.18019342,57.18019342,57.18019342,57.18019342,57.18019342,57.18019342,57.18019342,57.18019342,57.18019342,0.009198542,57.70502412,sufficient_time,100,250,2300,[-0.5522222222222222],[0.04888888888888889],[1],[0],[0],[0.5242433329999585],['deck_A'],57.70555842,57.71894725,60.70358238,60.73352458,swara,1,2024-04-09_08h26.10.966,IOWA_Gambling_Task_incase,2023.2.2,None,2024-04-09 08h26.22.322222 +0530
,,,,0,0,0,0,,,,,,,,,,,,,,,,,,,,,,,,,,,,,,,,,,,,,,,,,,,,,,,,,,,swara,1,2024-04-09_08h26.10.966,IOWA_Gambling_Task_incase,2023.2.2,None,2024-04-09 08h26.22.322222 +0530
250,0,50,0,1,0,1,0,0,0,0,2,60.73352458,,,,,,,,,,,,,,,,,,,60.71496079,60.73352458,60.73352458,60.73352458,60.73352458,60.73352458,60.73352458,60.73352458,60.73352458,60.73352458,0.013106375,61.70363537,sufficient_time,100,0,2400,[-0.2788888888888889],[0.08888888888888889],[1],[0],[0],[0.9843364580001435],['deck_B'],61.70450813,61.71271329,64.70370038,64.72470142,swara,1,2024-04-09_08h26.10.966,IOWA_Gambling_Task_incase,2023.2.2,None,2024-04-09 08h26.22.322222 +0530
0,0,0,0,1,0,1,0,0,1,1,5,64.72470142,,,,,,,,,,,,,,,,,,,64.70411108,64.72470142,64.72470142,64.72470142,64.72470142,64.72470142,64.72470142,64.72470142,64.72470142,64.72470142,0.004166291,65.06447729,sufficient_time,100,0,2500,[-0.21333333333333335],[0.10777777777777778],[1],[0],[0],[0.3551370830000451],['deck_B'],65.0649935,65.08650275,68.06992429,,swara,1,2024-04-09_08h26.10.966,IOWA_Gambling_Task_incase,2023.2.2,None,2024-04-09 08h26.22.322222 +0530
0,0,0,0,1,0,1,0,0,2,2,7,68.0909275,,,,,,,,,,,,,,,,,,,68.07033925,68.0909275,68.0909275,68.0909275,68.0909275,68.0909275,68.0909275,68.0909275,68.0909275,68.0909275,0.009904541,68.45866942,sufficient_time,100,0,2600,[-0.21777777777777776],[0.07777777777777778],[1],[0],[0],[0.38314649999983885],['deck_B'],68.45918696,68.47122888,71.45941008,71.48145688,swara,1,2024-04-09_08h26.10.966,IOWA_Gambling_Task_incase,2023.2.2,None,2024-04-09 08h26.22.322222 +0530
250,0,50,0,1,0,1,0,0,3,3,3,71.48145688,,,,,,,,,,,,,,,,,,,71.45984413,71.48145688,71.48145688,71.48145688,71.48145688,71.48145688,71.48145688,71.48145688,71.48145688,71.48145688,0.006965416,71.83135833,sufficient_time,100,0,2700,[-0.21777777777777776],[0.07777777777777778],[1],[0],[0],[0.36454150000008667],['deck_B'],71.83187629,71.85313554,74.83664933,,swara,1,2024-04-09_08h26.10.966,IOWA_Gambling_Task_incase,2023.2.2,None,2024-04-09 08h26.22.322222 +0530
0,0,0,0,1,0,1,0,0,4,4,9,74.85839708,,,,,,,,,,,,,,,,,,,74.83708263,74.85839708,74.85839708,74.85839708,74.85839708,74.85839708,74.85839708,74.85839708,74.85839708,74.85839708,0.010773375,75.54269871,sufficient_time,100,0,2800,[-0.21777777777777776],[0.07777777777777778],[1],[0],[0],[0.6993781249998392],['deck_B'],75.54326033,75.55311496,78.5372535,78.55796792,swara,1,2024-04-09_08h26.10.966,IOWA_Gambling_Task_incase,2023.2.2,None,2024-04-09 08h26.22.322222 +0530
250,0,50,0,1,0,1,0,0,5,5,4,78.55796792,,,,,,,,,,,,,,,,,,,78.53768379,78.55796792,78.55796792,78.55796792,78.55796792,78.55796792,78.55796792,78.55796792,78.55796792,78.55796792,-0.000981083,79.18148013,sufficient_time,100,0,2900,[-0.21777777777777776],[0.07777777777777778],[1],[0],[0],[0.6385302499998033],['deck_B'],79.18200167,79.1875285,82.17065208,82.19100383,swara,1,2024-04-09_08h26.10.966,IOWA_Gambling_Task_incase,2023.2.2,None,2024-04-09 08h26.22.322222 +0530
250,1250,50,250,1,0,1,0,0,6,6,0,82.19100383,,,,,,,,,,,,,,,,,,,82.17105933,82.19100383,82.19100383,82.19100383,82.19100383,82.19100383,82.19100383,82.19100383,82.19100383,82.19100383,0.009175,82.46532467,sufficient_time,100,1250,1750,[-0.21777777777777776],[0.07777777777777778],[1],[0],[0],[0.2737041249997674],['deck_B'],82.46583362,82.47455042,85.45972075,85.47819254,swara,1,2024-04-09_08h26.10.966,IOWA_Gambling_Task_incase,2023.2.2,None,2024-04-09 08h26.22.322222 +0530
0,0,0,0,1,0,1,0,0,7,7,8,85.47819254,,,,,,,,,,,,,,,,,,,85.46014729,85.47819254,85.47819254,85.47819254,85.47819254,85.47819254,85.47819254,85.47819254,85.47819254,85.47819254,0.012530083,86.4390955,sufficient_time,50,0,1800,[0.15222222222222223],[0.09111111111111111],[1],[0],[0],[0.9602832499999749],['deck_C'],86.43960046,86.45320213,89.43739442,89.45613475,swara,1,2024-04-09_08h26.10.966,IOWA_Gambling_Task_incase,2023.2.2,None,2024-04-09 08h26.22.322222 +0530
250,0,50,0,1,0,1,0,0,8,8,1,89.45613475,,,,,,,,,,,,,,,,,,,89.43777375,89.45613475,89.45613475,89.45613475,89.45613475,89.45613475,89.45613475,89.45613475,89.45613475,89.45613475,0.001913583,89.82248238,sufficient_time,50,0,1850,[0.5011111111111111],[0.13333333333333333],[1],[0],[0],[0.38042170900007477],['deck_D'],89.82300308,89.83687775,92.82102404,92.84024937,swara,1,2024-04-09_08h26.10.966,IOWA_Gambling_Task_incase,2023.2.2,None,2024-04-09 08h26.22.322222 +0530
0,0,0,0,1,0,1,0,0,9,9,6,92.84024937,,,,,,,,,,,,,,,,,,,92.82147592,92.84024937,92.84024937,92.84024937,92.84024937,92.84024937,92.84024937,92.84024937,92.84024937,92.84024937,0.002404625,93.13216654,sufficient_time,50,0,1900,[0.5366666666666666],[0.14555555555555555],[1],[0],[0],[0.3060896249999132],['deck_D'],93.1326875,93.15374017,96.13731596,,swara,1,2024-04-09_08h26.10.966,IOWA_Gambling_Task_incase,2023.2.2,None,2024-04-09 08h26.22.322222 +0530
,,,,1,0,1,0,,,,,,,,,,,,,,,,,,,,,,,,,,,,,,,,,,,,,,,,,,,,,,,,,,,swara,1,2024-04-09_08h26.10.966,IOWA_Gambling_Task_incase,2023.2.2,None,2024-04-09 08h26.22.322222 +0530
250,0,50,0,2,0,2,0,0,0,0,3,96.16901838,,,,,,,,,,,,,,,,,,,96.14995483,96.16901838,96.16901838,96.16901838,96.16901838,96.16901838,96.16901838,96.16901838,96.16901838,96.16901838,0.021412,96.70630858,sufficient_time,50,0,1950,[0.5366666666666666],[0.14444444444444443],[1],[0],[0],[0.5515909580003608],['deck_D'],96.70722338,96.72061883,99.70400046,99.7249985,swara,1,2024-04-09_08h26.10.966,IOWA_Gambling_Task_incase,2023.2.2,None,2024-04-09 08h26.22.322222 +0530
0,0,0,0,2,0,2,0,0,1,1,7,99.7249985,,,,,,,,,,,,,,,,,,,99.70442617,99.7249985,99.7249985,99.7249985,99.7249985,99.7249985,99.7249985,99.7249985,99.7249985,99.7249985,0.002466,100.2558222,sufficient_time,50,0,2000,[0.5355555555555556],[0.14444444444444443],[1],[0],[0],[0.5454525830000421],['deck_D'],100.2563489,100.2702518,103.2547414,103.2760083,swara,1,2024-04-09_08h26.10.966,IOWA_Gambling_Task_incase,2023.2.2,None,2024-04-09 08h26.22.322222 +0530
250,1250,50,250,2,0,2,0,0,2,2,0,103.2760083,,,,,,,,,,,,,,,,,,,103.2552518,103.2760083,103.2760083,103.2760083,103.2760083,103.2760083,103.2760083,103.2760083,103.2760083,103.2760083,0.003708792,103.7895008,sufficient_time,50,250,1800,[0.5355555555555556],[0.14444444444444443],[1],[0],[0],[0.5287592919999042],['deck_D'],103.7900111,103.8036135,106.7881846,106.8086211,swara,1,2024-04-09_08h26.10.966,IOWA_Gambling_Task_incase,2023.2.2,None,2024-04-09 08h26.22.322222 +0530
0,0,0,0,2,0,2,0,0,3,3,6,106.8086211,,,,,,,,,,,,,,,,,,,106.7885905,106.8086211,106.8086211,106.8086211,106.8086211,106.8086211,106.8086211,106.8086211,106.8086211,106.8086211,0.002726334,107.3063987,sufficient_time,50,0,1850,[0.27444444444444444],[0.12444444444444444],[1],[0],[0],[0.5130593330000011],['deck_C'],107.3069347,107.3203927,110.3047792,110.3266867,swara,1,2024-04-09_08h26.10.966,IOWA_Gambling_Task_incase,2023.2.2,None,2024-04-09 08h26.22.322222 +0530
250,0,50,0,2,0,2,0,0,4,4,4,110.3266867,,,,,,,,,,,,,,,,,,,110.3051999,110.3266867,110.3266867,110.3266867,110.3266867,110.3266867,110.3266867,110.3266867,110.3266867,110.3266867,0.004296708,110.6722283,sufficient_time,50,50,1850,[0.2722222222222222],[0.12333333333333334],[1],[0],[0],[0.3603291250001348],['deck_C'],110.672752,110.6809281,113.6711826,113.687566,swara,1,2024-04-09_08h26.10.966,IOWA_Gambling_Task_incase,2023.2.2,None,2024-04-09 08h26.22.322222 +0530
0,0,0,0,2,0,2,0,0,5,5,5,113.687566,,,,,,,,,,,,,,,,,,,113.6716276,113.687566,113.687566,113.687566,113.687566,113.687566,113.687566,113.687566,113.687566,113.687566,0.014988917,114.3827053,sufficient_time,50,0,1900,[0.2722222222222222],[0.12333333333333334],[1],[0],[0],[0.6945902090001255],['deck_C'],114.3832119,114.3916495,117.37928,117.4003396,swara,1,2024-04-09_08h26.10.966,IOWA_Gambling_Task_incase,2023.2.2,None,2024-04-09 08h26.22.322222 +0530
250,0,50,0,2,0,2,0,0,6,6,2,117.4003396,,,,,,,,,,,,,,,,,,,117.3797077,117.4003396,117.4003396,117.4003396,117.4003396,117.4003396,117.4003396,117.4003396,117.4003396,117.4003396,0.001066292,118.0231228,sufficient_time,50,50,1900,[0.2722222222222222],[0.12333333333333334],[1],[0],[0],[0.6381628750000345],['deck_C'],118.0236309,118.0312822,121.0217894,121.0379822,swara,1,2024-04-09_08h26.10.966,IOWA_Gambling_Task_incase,2023.2.2,None,2024-04-09 08h26.22.322222 +0530
0,0,0,0,2,0,2,0,0,7,7,9,121.0379822,,,,,,,,,,,,,,,,,,,121.02224,121.0379822,121.0379822,121.0379822,121.0379822,121.0379822,121.0379822,121.0379822,121.0379822,121.0379822,0.014544459,121.5112272,sufficient_time,50,0,1950,[0.2611111111111111],[0.12111111111111111],[1],[0],[0],[0.4725636250000207],['deck_C'],121.5117503,121.520741,124.5052591,124.5255025,swara,1,2024-04-09_08h26.10.966,IOWA_Gambling_Task_incase,2023.2.2,None,2024-04-09 08h26.22.322222 +0530
250,0,50,0,2,0,2,0,0,8,8,1,124.5255025,,,,,,,,,,,,,,,,,,,124.5056922,124.5255025,124.5255025,124.5255025,124.5255025,124.5255025,124.5255025,124.5255025,124.5255025,124.5255025,0.013933375,124.8237575,sufficient_time,50,50,1950,[0.24444444444444444],[0.11333333333333333],[1],[0],[0],[0.29756316700013485],['deck_C'],124.824285,124.837747,127.821997,127.8387067,swara,1,2024-04-09_08h26.10.966,IOWA_Gambling_Task_incase,2023.2.2,None,2024-04-09 08h26.22.322222 +0530
0,0,0,0,2,0,2,0,0,9,9,8,127.8387067,,,,,,,,,,,,,,,,,,,127.8224334,127.8387067,127.8387067,127.8387067,127.8387067,127.8387067,127.8387067,127.8387067,127.8387067,127.8387067,0.014598291,128.1828037,sufficient_time,50,0,2000,[0.24444444444444444],[0.11333333333333333],[1],[0],[0],[0.3435280829999101],['deck_C'],128.1833116,128.1928688,131.1777634,131.2095094,swara,1,2024-04-09_08h26.10.966,IOWA_Gambling_Task_incase,2023.2.2,None,2024-04-09 08h26.22.322222 +0530
,,,,2,0,2,0,,,,,,,,,,,,,,,,,,,,,,,,,,,,,,,,,,,,,,,,,,,,,,,,,,,swara,1,2024-04-09_08h26.10.966,IOWA_Gambling_Task_incase,2023.2.2,None,2024-04-09 08h26.22.322222 +0530
0,0,0,0,3,0,3,0,0,0,0,8,131.2095094,,,,,,,,,,,,,,,,,,,131.1905163,131.2095094,131.2095094,131.2095094,131.2095094,131.2095094,131.2095094,131.2095094,131.2095094,131.2095094,0.011159083,131.4676135,sufficient_time,50,0,2050,[0.24444444444444444],[0.11333333333333333],[1],[0],[0],[0.27252737500020885],['deck_C'],131.468442,131.4749641,134.462054,134.4805018,swara,1,2024-04-09_08h26.10.966,IOWA_Gambling_Task_incase,2023.2.2,None,2024-04-09 08h26.22.322222 +0530
0,0,0,0,3,0,3,0,0,1,1,7,134.4805018,,,,,,,,,,,,,,,,,,,134.4624263,134.4805018,134.4805018,134.4805018,134.4805018,134.4805018,134.4805018,134.4805018,134.4805018,134.4805018,0.012241042,134.7996368,sufficient_time,100,0,2150,[-0.24333333333333335],[0.052222222222222225],[1],[0],[0],[0.318577374999677],['deck_B'],134.8001568,134.80873,137.795792,137.8158,swara,1,2024-04-09_08h26.10.966,IOWA_Gambling_Task_incase,2023.2.2,None,2024-04-09 08h26.22.322222 +0530
250,0,50,0,3,0,3,0,0,2,2,4,137.8158,,,,,,,,,,,,,,,,,,,137.7962317,137.8158,137.8158,137.8158,137.8158,137.8158,137.8158,137.8158,137.8158,137.8158,0.001100125,138.3286492,sufficient_time,100,0,2250,[-0.24333333333333335],[0.052222222222222225],[1],[0],[0],[0.526787916000103],['deck_B'],138.3291638,138.3382808,141.3217699,141.3424397,swara,1,2024-04-09_08h26.10.966,IOWA_Gambling_Task_incase,2023.2.2,None,2024-04-09 08h26.22.322222 +0530
0,0,0,0,3,0,3,0,0,3,3,5,141.3424397,,,,,,,,,,,,,,,,,,,141.3221702,141.3424397,141.3424397,141.3424397,141.3424397,141.3424397,141.3424397,141.3424397,141.3424397,141.3424397,0.013444375,142.0332365,sufficient_time,100,0,2350,[-0.24333333333333335],[0.052222222222222225],[1],[0],[0],[0.6902490830002534],['deck_B'],142.0337341,142.0546863,145.0384595,,swara,1,2024-04-09_08h26.10.966,IOWA_Gambling_Task_incase,2023.2.2,None,2024-04-09 08h26.22.322222 +0530
250,0,50,0,3,0,3,0,0,4,4,3,145.0591075,,,,,,,,,,,,,,,,,,,145.0388797,145.0591075,145.0591075,145.0591075,145.0591075,145.0591075,145.0591075,145.0591075,145.0591075,145.0591075,0.009694292,145.4451627,sufficient_time,100,0,2450,[-0.22444444444444445],[0.06111111111111111],[1],[0],[0],[0.40103291700006594],['deck_B'],145.4457278,145.4547033,148.4387935,148.4588519,swara,1,2024-04-09_08h26.10.966,IOWA_Gambling_Task_incase,2023.2.2,None,2024-04-09 08h26.22.322222 +0530
0,0,0,0,3,0,3,0,0,5,5,9,148.4588519,,,,,,,,,,,,,,,,,,,148.4392165,148.4588519,148.4588519,148.4588519,148.4588519,148.4588519,148.4588519,148.4588519,148.4588519,148.4588519,0.013292709,148.8946496,sufficient_time,100,0,2550,[-0.2388888888888889],[0.016666666666666666],[1],[0],[0],[0.43517195899994476],['deck_B'],148.8951702,148.9050389,151.8886428,151.9100663,swara,1,2024-04-09_08h26.10.966,IOWA_Gambling_Task_incase,2023.2.2,None,2024-04-09 08h26.22.322222 +0530
250,0,50,0,3,0,3,0,0,6,6,1,151.9100663,,,,,,,,,,,,,,,,,,,151.8890788,151.9100663,151.9100663,151.9100663,151.9100663,151.9100663,151.9100663,151.9100663,151.9100663,151.9100663,-0.000983666,152.6836145,sufficient_time,100,250,2400,[-0.5166666666666667],[0.024444444444444446],[1],[0],[0],[0.7887835419996918],['deck_A'],152.6841226,152.6923498,155.6785817,155.697387,swara,1,2024-04-09_08h26.10.966,IOWA_Gambling_Task_incase,2023.2.2,None,2024-04-09 08h26.22.322222 +0530
250,0,50,0,3,0,3,0,0,7,7,2,155.697387,,,,,,,,,,,,,,,,,,,155.6789954,155.697387,155.697387,155.697387,155.697387,155.697387,155.697387,155.697387,155.697387,155.697387,-0.000899292,156.1076934,sufficient_time,100,250,2250,[-0.5355555555555556],[0.02],[1],[0],[0],[0.4237866670000585],['deck_A'],156.1082111,156.1216388,159.1062895,159.1261985,swara,1,2024-04-09_08h26.10.966,IOWA_Gambling_Task_incase,2023.2.2,None,2024-04-09 08h26.22.322222 +0530
250,1250,50,250,3,0,3,0,0,8,8,0,159.1261985,,,,,,,,,,,,,,,,,,,159.1067275,159.1261985,159.1261985,159.1261985,159.1261985,159.1261985,159.1261985,159.1261985,159.1261985,159.1261985,0.003107292,159.4504235,sufficient_time,100,1250,1100,[-0.17222222222222222],[-0.06444444444444444],[1],[0],[0],[0.338473625000006],['deck_B'],159.4509472,159.4597354,162.4467322,162.46686,swara,1,2024-04-09_08h26.10.966,IOWA_Gambling_Task_incase,2023.2.2,None,2024-04-09 08h26.22.322222 +0530
0,0,0,0,3,0,3,0,0,9,9,6,162.46686,,,,,,,,,,,,,,,,,,,162.4471489,162.46686,162.46686,162.46686,162.46686,162.46686,162.46686,162.46686,162.46686,162.46686,0.000740083,163.1839658,sufficient_time,50,0,1150,[0.12777777777777777],[0.015555555555555555],[1],[0],[0],[0.7316093750000618],['deck_C'],163.1845046,163.1931009,166.1791802,166.2087153,swara,1,2024-04-09_08h26.10.966,IOWA_Gambling_Task_incase,2023.2.2,None,2024-04-09 08h26.22.322222 +0530
,,,,3,0,3,0,,,,,,,,,,,,,,,,,,,,,,,,,,,,,,,,,,,,,,,,,,,,,,,,,,,swara,1,2024-04-09_08h26.10.966,IOWA_Gambling_Task_incase,2023.2.2,None,2024-04-09 08h26.22.322222 +0530
250,0,50,0,4,0,4,0,0,0,0,2,166.2087153,,,,,,,,,,,,,,,,,,,166.1895614,166.2087153,166.2087153,166.2087153,166.2087153,166.2087153,166.2087153,166.2087153,166.2087153,166.2087153,0.008657792,166.628973,sufficient_time,50,50,1150,[0.15666666666666668],[0.04555555555555556],[1],[0],[0],[0.4352030410000225],['deck_C'],166.6298458,166.6383839,169.6229146,169.6390417,swara,1,2024-04-09_08h26.10.966,IOWA_Gambling_Task_incase,2023.2.2,None,2024-04-09 08h26.22.322222 +0530
250,0,50,0,4,0,4,0,0,1,1,1,169.6390417,,,,,,,,,,,,,,,,,,,169.6233543,169.6390417,169.6390417,169.6390417,169.6390417,169.6390417,169.6390417,169.6390417,169.6390417,169.6390417,0.00940125,170.6508038,sufficient_time,50,0,1200,[0.5644444444444444],[0.08777777777777777],[1],[0],[0],[1.0111842920000527],['deck_D'],170.6513124,170.6594697,173.6452165,173.6643376,swara,1,2024-04-09_08h26.10.966,IOWA_Gambling_Task_incase,2023.2.2,None,2024-04-09 08h26.22.322222 +0530
0,0,0,0,4,0,4,0,0,2,2,9,173.6643376,,,,,,,,,,,,,,,,,,,173.6456217,173.6643376,173.6643376,173.6643376,173.6643376,173.6643376,173.6643376,173.6643376,173.6643376,173.6643376,0.013195666,174.1180534,sufficient_time,50,0,1250,[0.5655555555555556],[0.08777777777777777],[1],[0],[0],[0.45316220799986695],['deck_D'],174.1185673,174.126117,177.1123005,177.1312066,swara,1,2024-04-09_08h26.10.966,IOWA_Gambling_Task_incase,2023.2.2,None,2024-04-09 08h26.22.322222 +0530
0,0,0,0,4,0,4,0,0,3,3,8,177.1312066,,,,,,,,,,,,,,,,,,,177.1126996,177.1312066,177.1312066,177.1312066,177.1312066,177.1312066,177.1312066,177.1312066,177.1312066,177.1312066,0.012808875,177.624539,sufficient_time,50,0,1300,[0.2877777777777778],[0.12111111111111111],[1],[0],[0],[0.4927432089998547],['deck_C'],177.625084,177.6389071,180.6231358,180.6444977,swara,1,2024-04-09_08h26.10.966,IOWA_Gambling_Task_incase,2023.2.2,None,2024-04-09 08h26.22.322222 +0530
0,0,0,0,4,0,4,0,0,4,4,5,180.6444977,,,,,,,,,,,,,,,,,,,180.6235767,180.6444977,180.6444977,180.6444977,180.6444977,180.6444977,180.6444977,180.6444977,180.6444977,180.6444977,0.003634417,181.2178095,sufficient_time,50,0,1350,[0.2877777777777778],[0.12111111111111111],[1],[0],[0],[0.5884180419998302],['deck_C'],181.2183215,181.2393372,184.2229088,,swara,1,2024-04-09_08h26.10.966,IOWA_Gambling_Task_incase,2023.2.2,None,2024-04-09 08h26.22.322222 +0530
250,0,50,0,4,0,4,0,0,5,5,3,184.2440817,,,,,,,,,,,,,,,,,,,184.2233397,184.2440817,184.2440817,184.2440817,184.2440817,184.2440817,184.2440817,184.2440817,184.2440817,184.2440817,0.0095975,184.9085022,sufficient_time,50,50,1350,[0.2877777777777778],[0.12111111111111111],[1],[0],[0],[0.6798744169996098],['deck_C'],184.9090517,184.9223975,187.9068291,187.9230433,swara,1,2024-04-09_08h26.10.966,IOWA_Gambling_Task_incase,2023.2.2,None,2024-04-09 08h26.22.322222 +0530
250,0,50,0,4,0,4,0,0,6,6,4,187.9230433,,,,,,,,,,,,,,,,,,,187.9072442,187.9230433,187.9230433,187.9230433,187.9230433,187.9230433,187.9230433,187.9230433,187.9230433,187.9230433,0.014145958,188.9122505,sufficient_time,50,0,1400,[0.6022222222222222],[0.13555555555555557],[1],[0],[0],[0.9886133749996588],['deck_D'],188.9127764,188.9222897,191.906937,191.9277442,swara,1,2024-04-09_08h26.10.966,IOWA_Gambling_Task_incase,2023.2.2,None,2024-04-09 08h26.22.322222 +0530
250,1250,50,250,4,0,4,0,0,7,7,0,191.9277442,,,,,,,,,,,,,,,,,,,191.9073664,191.9277442,191.9277442,191.9277442,191.9277442,191.9277442,191.9277442,191.9277442,191.9277442,191.9277442,-0.000802083,192.3520405,sufficient_time,50,250,1200,[0.6022222222222222],[0.13555555555555557],[1],[0],[0],[0.4393458329996065],['deck_D'],192.3525438,192.3610987,195.3459938,195.3647965,swara,1,2024-04-09_08h26.10.966,IOWA_Gambling_Task_incase,2023.2.2,None,2024-04-09 08h26.22.322222 +0530
0,0,0,0,4,0,4,0,0,8,8,7,195.3647965,,,,,,,,,,,,,,,,,,,195.3464442,195.3647965,195.3647965,195.3647965,195.3647965,195.3647965,195.3647965,195.3647965,195.3647965,195.3647965,0.012429166,195.6514822,sufficient_time,50,0,1250,[0.6022222222222222],[0.13555555555555557],[1],[0],[0],[0.28613858300013817],['deck_D'],195.6520016,195.661476,198.6460032,198.6658135,swara,1,2024-04-09_08h26.10.966,IOWA_Gambling_Task_incase,2023.2.2,None,2024-04-09 08h26.22.322222 +0530
0,0,0,0,4,0,4,0,0,9,9,6,198.6658135,,,,,,,,,,,,,,,,,,,198.6464087,198.6658135,198.6658135,198.6658135,198.6658135,198.6658135,198.6658135,198.6658135,198.6658135,198.6658135,-0.000937625,198.9137579,sufficient_time,50,0,1300,[0.6022222222222222],[0.13555555555555557],[1],[0],[0],[0.26194308300000557],['deck_D'],198.9142805,198.9230631,201.9070823,201.9368183,swara,1,2024-04-09_08h26.10.966,IOWA_Gambling_Task_incase,2023.2.2,None,2024-04-09 08h26.22.322222 +0530
,,,,4,0,4,0,,,,,,,,,,,,,,,,,,,,,,,,,,,,,,,,,,,,,,,,,,,,,,,,,,,swara,1,2024-04-09_08h26.10.966,IOWA_Gambling_Task_incase,2023.2.2,None,2024-04-09 08h26.22.322222 +0530
250,0,50,0,5,0,5,0,0,0,0,3,201.9368183,,,,,,,,,,,,,,,,,,,201.9191029,201.9368183,201.9368183,201.9368183,201.9368183,201.9368183,201.9368183,201.9368183,201.9368183,201.9368183,0.008551708,202.4683696,sufficient_time,50,0,1350,[0.6011111111111112],[0.13666666666666666],[1],[0],[0],[0.5449068749999242],['deck_D'],202.4691908,202.4770968,205.4635469,205.4837048,swara,1,2024-04-09_08h26.10.966,IOWA_Gambling_Task_incase,2023.2.2,None,2024-04-09 08h26.22.322222 +0530
250,0,50,0,5,0,5,0,0,1,1,1,205.4837048,,,,,,,,,,,,,,,,,,,205.4639639,205.4837048,205.4837048,205.4837048,205.4837048,205.4837048,205.4837048,205.4837048,205.4837048,205.4837048,-0.00060625,205.9079106,sufficient_time,50,0,1400,[0.6011111111111112],[0.13666666666666666],[1],[0],[0],[0.43856716700020115],['deck_D'],205.9084403,205.9136736,208.9074075,208.9294685,swara,1,2024-04-09_08h26.10.966,IOWA_Gambling_Task_incase,2023.2.2,None,2024-04-09 08h26.22.322222 +0530
0,0,0,0,5,0,5,0,0,2,2,8,208.9294685,,,,,,,,,,,,,,,,,,,208.907927,208.9294685,208.9294685,208.9294685,208.9294685,208.9294685,208.9294685,208.9294685,208.9294685,208.9294685,0.004918333,209.6690327,sufficient_time,50,0,1450,[0.6011111111111112],[0.13666666666666666],[1],[0],[0],[0.7549992079998447],['deck_D'],209.6695478,209.6762655,212.663267,212.6817742,swara,1,2024-04-09_08h26.10.966,IOWA_Gambling_Task_incase,2023.2.2,None,2024-04-09 08h26.22.322222 +0530
250,0,50,0,5,0,5,0,0,3,3,4,212.6817742,,,,,,,,,,,,,,,,,,,212.6636908,212.6817742,212.6817742,212.6817742,212.6817742,212.6817742,212.6817742,212.6817742,212.6817742,212.6817742,0.012394708,213.3249605,sufficient_time,50,0,1500,[0.6011111111111112],[0.13666666666666666],[1],[0],[0],[0.64262058300028],['deck_D'],213.3254991,213.3310784,216.3149101,216.3338638,swara,1,2024-04-09_08h26.10.966,IOWA_Gambling_Task_incase,2023.2.2,None,2024-04-09 08h26.22.322222 +0530
0,0,0,0,5,0,5,0,0,4,4,5,216.3338638,,,,,,,,,,,,,,,,,,,216.3153317,216.3338638,216.3338638,216.3338638,216.3338638,216.3338638,216.3338638,216.3338638,216.3338638,216.3338638,0.008548083,216.7247178,sufficient_time,50,0,1550,[0.6011111111111112],[0.13666666666666666],[1],[0],[0],[0.39027166599998964],['deck_D'],216.7252579,216.7303367,219.713171,219.7317638,swara,1,2024-04-09_08h26.10.966,IOWA_Gambling_Task_incase,2023.2.2,None,2024-04-09 08h26.22.322222 +0530
250,1250,50,250,5,0,5,0,0,5,5,0,219.7317638,,,,,,,,,,,,,,,,,,,219.7136018,219.7317638,219.7317638,219.7317638,219.7317638,219.7317638,219.7317638,219.7317638,219.7317638,219.7317638,0.006674583,220.8020157,sufficient_time,50,250,1350,[0.5744444444444444],[0.12666666666666668],[1],[0],[0],[1.0697288750002372],['deck_D'],220.8025383,220.811614,223.7974121,223.8164492,swara,1,2024-04-09_08h26.10.966,IOWA_Gambling_Task_incase,2023.2.2,None,2024-04-09 08h26.22.322222 +0530
250,0,50,0,5,0,5,0,0,6,6,2,223.8164492,,,,,,,,,,,,,,,,,,,223.7978115,223.8164492,223.8164492,223.8164492,223.8164492,223.8164492,223.8164492,223.8164492,223.8164492,223.8164492,-0.000577709,224.3686092,sufficient_time,50,0,1400,[0.5744444444444444],[0.12666666666666668],[1],[0],[0],[0.5660342920000403],['deck_D'],224.3691112,224.3776599,227.3646189,227.3853092,swara,1,2024-04-09_08h26.10.966,IOWA_Gambling_Task_incase,2023.2.2,None,2024-04-09 08h26.22.322222 +0530
0,0,0,0,5,0,5,0,0,7,7,9,227.3853092,,,,,,,,,,,,,,,,,,,227.365036,227.3853092,227.3853092,227.3853092,227.3853092,227.3853092,227.3853092,227.3853092,227.3853092,227.3853092,0.000444125,228.6965134,sufficient_time,50,0,1450,[0.2544444444444444],[0.08222222222222222],[1],[0],[0],[1.3262525000000096],['deck_C'],228.697021,228.706915,231.6911218,231.7130781,swara,1,2024-04-09_08h26.10.966,IOWA_Gambling_Task_incase,2023.2.2,None,2024-04-09 08h26.22.322222 +0530
0,0,0,0,5,0,5,0,0,8,8,6,231.7130781,,,,,,,,,,,,,,,,,,,231.6916098,231.7130781,231.7130781,231.7130781,231.7130781,231.7130781,231.7130781,231.7130781,231.7130781,231.7130781,-0.000373917,234.3266497,sufficient_time,50,0,1500,[0.2111111111111111],[0.11888888888888889],[1],[0],[0],[2.6292929999999615],['deck_C'],234.3272188,234.3404369,237.3245766,237.3451153,swara,1,2024-04-09_08h26.10.966,IOWA_Gambling_Task_incase,2023.2.2,None,2024-04-09 08h26.22.322222 +0530
0,0,0,0,5,0,5,0,0,9,9,7,237.3451153,,,,,,,,,,,,,,,,,,,237.3249197,237.3451153,237.3451153,237.3451153,237.3451153,237.3451153,237.3451153,237.3451153,237.3451153,237.3451153,0.0027375,238.4916912,sufficient_time,50,0,1550,[0.24444444444444444],[0.12555555555555556],[1],[0],[0],[1.1610860410000896],['deck_C'],238.4922105,238.4971913,241.4803789,241.5084464,swara,1,2024-04-09_08h26.10.966,IOWA_Gambling_Task_incase,2023.2.2,None,2024-04-09 08h26.22.322222 +0530
,,,,5,0,5,0,,,,,,,,,,,,,,,,,,,,,,,,,,,,,,,,,,,,,,,,,,,,,,,,,,,swara,1,2024-04-09_08h26.10.966,IOWA_Gambling_Task_incase,2023.2.2,None,2024-04-09 08h26.22.322222 +0530
250,0,50,0,6,0,6,0,0,0,0,3,241.5084464,,,,,,,,,,,,,,,,,,,241.4913004,241.5084464,241.5084464,241.5084464,241.5084464,241.5084464,241.5084464,241.5084464,241.5084464,241.5084464,0.002905959,242.1308048,sufficient_time,50,50,1550,[0.20777777777777778],[0.20777777777777778],[1],[0],[0],[0.6350639580000461],['deck_C'],242.1317151,242.1398312,245.1248682,245.1395429,swara,1,2024-04-09_08h26.10.966,IOWA_Gambling_Task_incase,2023.2.2,None,2024-04-09 08h26.22.322222 +0530
0,0,0,0,6,0,6,0,0,1,1,7,245.1395429,,,,,,,,,,,,,,,,,,,245.1252151,245.1395429,245.1395429,245.1395429,245.1395429,245.1395429,245.1395429,245.1395429,245.1395429,245.1395429,0.007967917,245.4482265,sufficient_time,50,0,1600,[0.5811111111111111],[0.16],[1],[0],[0],[0.308136167000157],['deck_D'],245.4488209,245.4570998,248.4414808,248.4605118,swara,1,2024-04-09_08h26.10.966,IOWA_Gambling_Task_incase,2023.2.2,None,2024-04-09 08h26.22.322222 +0530
0,0,0,0,6,0,6,0,0,2,2,8,248.4605118,,,,,,,,,,,,,,,,,,,248.4418406,248.4605118,248.4605118,248.4605118,248.4605118,248.4605118,248.4605118,248.4605118,248.4605118,248.4605118,0.011868042,248.8102321,sufficient_time,100,0,1700,[-0.22777777777777777],[0.07222222222222222],[1],[0],[0],[0.3491617919999044],['deck_B'],248.8107803,248.8240795,251.8083233,251.8303471,swara,1,2024-04-09_08h26.10.966,IOWA_Gambling_Task_incase,2023.2.2,None,2024-04-09 08h26.22.322222 +0530
0,0,0,0,6,0,6,0,0,3,3,9,251.8303471,,,,,,,,,,,,,,,,,,,251.808765,251.8303471,251.8303471,251.8303471,251.8303471,251.8303471,251.8303471,251.8303471,251.8303471,251.8303471,0.003213041,252.1316854,sufficient_time,100,0,1800,[-0.22444444444444445],[0.07222222222222222],[1],[0],[0],[0.31700579200014545],['deck_B'],252.1321932,252.141165,255.1251262,255.1452813,swara,1,2024-04-09_08h26.10.966,IOWA_Gambling_Task_incase,2023.2.2,None,2024-04-09 08h26.22.322222 +0530
0,0,0,0,6,0,6,0,0,4,4,6,255.1452813,,,,,,,,,,,,,,,,,,,255.125569,255.1452813,255.1452813,255.1452813,255.1452813,255.1452813,255.1452813,255.1452813,255.1452813,255.1452813,0.013264458,255.4479148,sufficient_time,100,0,1900,[-0.20222222222222222],[0.10555555555555556],[1],[0],[0],[0.3019087079997007],['deck_B'],255.4484483,255.4574381,258.4420369,258.4633657,swara,1,2024-04-09_08h26.10.966,IOWA_Gambling_Task_incase,2023.2.2,None,2024-04-09 08h26.22.322222 +0530
250,1250,50,250,6,0,6,0,0,5,5,0,258.4633657,,,,,,,,,,,,,,,,,,,258.4424911,258.4633657,258.4633657,258.4633657,258.4633657,258.4633657,258.4633657,258.4633657,258.4633657,258.4633657,0.015153583,258.7695089,sufficient_time,100,1250,750,[-0.19555555555555557],[0.09555555555555556],[1],[0],[0],[0.3055432920000385],['deck_B'],258.7700028,258.7787721,261.7639608,261.7819421,swara,1,2024-04-09_08h26.10.966,IOWA_Gambling_Task_incase,2023.2.2,None,2024-04-09 08h26.22.322222 +0530
0,0,0,0,6,0,6,0,0,6,6,5,261.7819421,,,,,,,,,,,,,,,,,,,261.7643239,261.7819421,261.7819421,261.7819421,261.7819421,261.7819421,261.7819421,261.7819421,261.7819421,261.7819421,0.012107958,262.327159,sufficient_time,100,0,850,[-0.20555555555555555],[0.07444444444444444],[1],[0],[0],[0.5446882920000462],['deck_B'],262.3276786,262.3410061,265.3254359,265.3471744,swara,1,2024-04-09_08h26.10.966,IOWA_Gambling_Task_incase,2023.2.2,None,2024-04-09 08h26.22.322222 +0530
250,0,50,0,6,0,6,0,0,7,7,1,265.3471744,,,,,,,,,,,,,,,,,,,265.3258833,265.3471744,265.3471744,265.3471744,265.3471744,265.3471744,265.3471744,265.3471744,265.3471744,265.3471744,0.002822416,265.620629,sufficient_time,100,0,950,[-0.20555555555555555],[0.07444444444444444],[1],[0],[0],[0.2894845000000714],['deck_B'],265.6211243,265.6278941,268.6154407,268.6349073,swara,1,2024-04-09_08h26.10.966,IOWA_Gambling_Task_incase,2023.2.2,None,2024-04-09 08h26.22.322222 +0530
250,0,50,0,6,0,6,0,0,8,8,2,268.6349073,,,,,,,,,,,,,,,,,,,268.6158428,268.6349073,268.6349073,268.6349073,268.6349073,268.6349073,268.6349073,268.6349073,268.6349073,268.6349073,-0.000911042,268.8867996,sufficient_time,100,0,1050,[-0.20555555555555555],[0.07444444444444444],[1],[0],[0],[0.26595454199969026],['deck_B'],268.8873042,268.9082584,271.8917709,,swara,1,2024-04-09_08h26.10.966,IOWA_Gambling_Task_incase,2023.2.2,None,2024-04-09 08h26.22.322222 +0530
250,0,50,0,6,0,6,0,0,9,9,4,271.9124253,,,,,,,,,,,,,,,,,,,271.8921652,271.9124253,271.9124253,271.9124253,271.9124253,271.9124253,271.9124253,271.9124253,271.9124253,271.9124253,0.009419875,272.2322571,sufficient_time,100,0,1150,[-0.20555555555555555],[0.07444444444444444],[1],[0],[0],[0.3347861249999369],['deck_B'],272.2327645,272.2411832,275.2256999,275.2544681,swara,1,2024-04-09_08h26.10.966,IOWA_Gambling_Task_incase,2023.2.2,None,2024-04-09 08h26.22.322222 +0530
,,,,6,0,6,0,,,,,,,,,,,,,,,,,,,,,,,,,,,,,,,,,,,,,,,,,,,,,,,,,,,swara,1,2024-04-09_08h26.10.966,IOWA_Gambling_Task_incase,2023.2.2,None,2024-04-09 08h26.22.322222 +0530
0,0,0,0,7,0,7,0,0,0,0,7,275.2544681,,,,,,,,,,,,,,,,,,,275.236153,275.2544681,275.2544681,275.2544681,275.2544681,275.2544681,275.2544681,275.2544681,275.2544681,275.2544681,0.006974542,275.5313557,sufficient_time,50,0,1200,[0.20222222222222222],[0.051111111111111114],[1],[0],[0],[0.2910232089998317],['deck_C'],275.5322583,275.5407022,278.5258153,278.5461651,swara,1,2024-04-09_08h26.10.966,IOWA_Gambling_Task_incase,2023.2.2,None,2024-04-09 08h26.22.322222 +0530
0,0,0,0,7,0,7,0,0,1,1,5,278.5461651,,,,,,,,,,,,,,,,,,,278.5262738,278.5461651,278.5461651,278.5461651,278.5461651,278.5461651,278.5461651,278.5461651,278.5461651,278.5461651,0.014080125,278.8867439,sufficient_time,100,0,1300,[-0.21444444444444444],[0.06333333333333334],[1],[0],[0],[0.3400154579999253],['deck_B'],278.8872578,278.895796,281.8819324,281.9019346,swara,1,2024-04-09_08h26.10.966,IOWA_Gambling_Task_incase,2023.2.2,None,2024-04-09 08h26.22.322222 +0530
0,0,0,0,7,0,7,0,0,2,2,6,281.9019346,,,,,,,,,,,,,,,,,,,281.882342,281.9019346,281.9019346,281.9019346,281.9019346,281.9019346,281.9019346,281.9019346,281.9019346,281.9019346,-0.000411625,282.1828684,sufficient_time,100,0,1400,[-0.21222222222222223],[0.06222222222222222],[1],[0],[0],[0.29525133300012385],['deck_B'],282.1833894,282.191303,285.1754852,285.1960584,swara,1,2024-04-09_08h26.10.966,IOWA_Gambling_Task_incase,2023.2.2,None,2024-04-09 08h26.22.322222 +0530
250,0,50,0,7,0,7,0,0,3,3,3,285.1960584,,,,,,,,,,,,,,,,,,,285.1759032,285.1960584,285.1960584,285.1960584,285.1960584,285.1960584,285.1960584,285.1960584,285.1960584,285.1960584,0.012841041,285.4536597,sufficient_time,100,0,1500,[-0.21222222222222223],[0.06222222222222222],[1],[0],[0],[0.2570489169997927],['deck_B'],285.4541775,285.4748657,288.4587381,,swara,1,2024-04-09_08h26.10.966,IOWA_Gambling_Task_incase,2023.2.2,None,2024-04-09 08h26.22.322222 +0530
250,0,50,0,7,0,7,0,0,4,4,1,288.4801759,,,,,,,,,,,,,,,,,,,288.4591806,288.4801759,288.4801759,288.4801759,288.4801759,288.4801759,288.4801759,288.4801759,288.4801759,288.4801759,0.0095915,288.7825545,sufficient_time,100,0,1600,[-0.21222222222222223],[0.06222222222222222],[1],[0],[0],[0.31810258399991653],['deck_B'],288.7830505,288.7917843,291.7761547,291.7969228,swara,1,2024-04-09_08h26.10.966,IOWA_Gambling_Task_incase,2023.2.2,None,2024-04-09 08h26.22.322222 +0530
250,0,50,0,7,0,7,0,0,5,5,2,291.7969228,,,,,,,,,,,,,,,,,,,291.776567,291.7969228,291.7969228,291.7969228,291.7969228,291.7969228,291.7969228,291.7969228,291.7969228,291.7969228,0.014045667,292.115224,sufficient_time,100,0,1700,[-0.20777777777777778],[0.052222222222222225],[1],[0],[0],[0.31776099999979124],['deck_B'],292.1157561,292.1249285,295.1093102,295.1270401,swara,1,2024-04-09_08h26.10.966,IOWA_Gambling_Task_incase,2023.2.2,None,2024-04-09 08h26.22.322222 +0530
0,0,0,0,7,0,7,0,0,6,6,9,295.1270401,,,,,,,,,,,,,,,,,,,295.1096246,295.1270401,295.1270401,295.1270401,295.1270401,295.1270401,295.1270401,295.1270401,295.1270401,295.1270401,0.011441083,295.432202,sufficient_time,50,0,1750,[0.14],[0.10444444444444445],[1],[0],[0],[0.30461412500017104],['deck_C'],295.4327572,295.4415847,298.4261321,298.4453436,swara,1,2024-04-09_08h26.10.966,IOWA_Gambling_Task_incase,2023.2.2,None,2024-04-09 08h26.22.322222 +0530
250,1250,50,250,7,0,7,0,0,7,7,0,298.4453436,,,,,,,,,,,,,,,,,,,298.4265497,298.4453436,298.4453436,298.4453436,298.4453436,298.4453436,298.4453436,298.4453436,298.4453436,298.4453436,0.012744834,298.748553,sufficient_time,100,1250,600,[-0.1322222222222222],[0.06111111111111111],[1],[0],[0],[0.302655749999758],['deck_B'],298.7491082,298.7578618,301.742309,301.762041,swara,1,2024-04-09_08h26.10.966,IOWA_Gambling_Task_incase,2023.2.2,None,2024-04-09 08h26.22.322222 +0530
0,0,0,0,7,0,7,0,0,8,8,8,301.762041,,,,,,,,,,,,,,,,,,,301.7427444,301.762041,301.762041,301.762041,301.762041,301.762041,301.762041,301.762041,301.762041,301.762041,0.013090583,302.4878512,sufficient_time,100,0,700,[-0.15],[0.06111111111111111],[1],[0],[0],[0.7252717920000578],['deck_B'],302.4883442,302.4959103,305.4822921,305.5007356,swara,1,2024-04-09_08h26.10.966,IOWA_Gambling_Task_incase,2023.2.2,None,2024-04-09 08h26.22.322222 +0530
250,0,50,0,7,0,7,0,0,9,9,4,305.5007356,,,,,,,,,,,,,,,,,,,305.4827115,305.5007356,305.5007356,305.5007356,305.5007356,305.5007356,305.5007356,305.5007356,305.5007356,305.5007356,0.012568375,309.0493427,sufficient_time,50,0,750,[0.5388888888888889],[0.14888888888888888],[1],[0],[0],[3.5479792079995605],['deck_D'],309.0498763,309.0584837,312.0431182,312.0725103,swara,1,2024-04-09_08h26.10.966,IOWA_Gambling_Task_incase,2023.2.2,None,2024-04-09 08h26.22.322222 +0530
,,,,7,0,7,0,,,,,,,,,,,,,,,,,,,,,,,,,,,,,,,,,,,,,,,,,,,,,,,,,,,swara,1,2024-04-09_08h26.10.966,IOWA_Gambling_Task_incase,2023.2.2,None,2024-04-09 08h26.22.322222 +0530
250,0,50,0,8,0,8,0,0,0,0,2,312.0725103,,,,,,,,,,,,,,,,,,,312.0543848,312.0725103,312.0725103,312.0725103,312.0725103,312.0725103,312.0725103,312.0725103,312.0725103,312.0725103,0.008172917,312.3713718,sufficient_time,50,0,800,[0.54],[0.14777777777777779],[1],[0],[0],[0.31269491600005495],['deck_D'],312.3721932,312.379031,315.3660598,315.3846877,swara,1,2024-04-09_08h26.10.966,IOWA_Gambling_Task_incase,2023.2.2,None,2024-04-09 08h26.22.322222 +0530
250,0,50,0,8,0,8,0,0,1,1,3,315.3846877,,,,,,,,,,,,,,,,,,,315.3664749,315.3846877,315.3846877,315.3846877,315.3846877,315.3846877,315.3846877,315.3846877,315.3846877,315.3846877,0.012672708,315.8045772,sufficient_time,50,0,850,[0.5411111111111111],[0.14666666666666667],[1],[0],[0],[0.4193288750002466],['deck_D'],315.8050978,315.8120429,318.7991261,318.8184572,swara,1,2024-04-09_08h26.10.966,IOWA_Gambling_Task_incase,2023.2.2,None,2024-04-09 08h26.22.322222 +0530
0,0,0,0,8,0,8,0,0,2,2,7,318.8184572,,,,,,,,,,,,,,,,,,,318.7995275,318.8184572,318.8184572,318.8184572,318.8184572,318.8184572,318.8184572,318.8184572,318.8184572,318.8184572,0.013527083,319.2324488,sufficient_time,50,0,900,[0.54],[0.14777777777777779],[1],[0],[0],[0.41338233299984495],['deck_D'],319.2329494,319.2422961,322.2261119,322.2460102,swara,1,2024-04-09_08h26.10.966,IOWA_Gambling_Task_incase,2023.2.2,None,2024-04-09 08h26.22.322222 +0530
250,0,50,0,8,0,8,0,0,3,3,1,322.2460102,,,,,,,,,,,,,,,,,,,322.2265348,322.2460102,322.2460102,322.2460102,322.2460102,322.2460102,322.2460102,322.2460102,322.2460102,322.2460102,0.013218916,322.5837098,sufficient_time,50,0,950,[0.5411111111111111],[0.14666666666666667],[1],[0],[0],[0.3371441250001226],['deck_D'],322.5842072,322.5921469,325.5767857,325.5960315,swara,1,2024-04-09_08h26.10.966,IOWA_Gambling_Task_incase,2023.2.2,None,2024-04-09 08h26.22.322222 +0530
250,1250,50,250,8,0,8,0,0,4,4,0,325.5960315,,,,,,,,,,,,,,,,,,,325.5772017,325.5960315,325.5960315,325.5960315,325.5960315,325.5960315,325.5960315,325.5960315,325.5960315,325.5960315,0.011997916,325.9170863,sufficient_time,50,250,750,[0.5411111111111111],[0.14555555555555555],[1],[0],[0],[0.3203918750000412],['deck_D'],325.9176207,325.9257665,328.9101103,328.9304128,swara,1,2024-04-09_08h26.10.966,IOWA_Gambling_Task_incase,2023.2.2,None,2024-04-09 08h26.22.322222 +0530
0,0,0,0,8,0,8,0,0,5,5,6,328.9304128,,,,,,,,,,,,,,,,,,,328.9105369,328.9304128,328.9304128,328.9304128,328.9304128,328.9304128,328.9304128,328.9304128,328.9304128,328.9304128,0.01297675,329.5495139,sufficient_time,50,0,800,[0.2833333333333333],[0.10222222222222223],[1],[0],[0],[0.6184745000000476],['deck_C'],329.5500398,329.5589349,332.5446715,332.5653582,swara,1,2024-04-09_08h26.10.966,IOWA_Gambling_Task_incase,2023.2.2,None,2024-04-09 08h26.22.322222 +0530
0,0,0,0,8,0,8,0,0,6,6,9,332.5653582,,,,,,,,,,,,,,,,,,,332.5450781,332.5653582,332.5653582,332.5653582,332.5653582,332.5653582,332.5653582,332.5653582,332.5653582,332.5653582,-0.000128625,333.3386188,sufficient_time,50,0,850,[0.2833333333333333],[0.10222222222222223],[1],[0],[0],[0.7879881250000835],['deck_C'],333.3391181,333.346441,336.3325054,336.3509113,swara,1,2024-04-09_08h26.10.966,IOWA_Gambling_Task_incase,2023.2.2,None,2024-04-09 08h26.22.322222 +0530
0,0,0,0,8,0,8,0,0,7,7,5,336.3509113,,,,,,,,,,,,,,,,,,,336.3329181,336.3509113,336.3509113,336.3509113,336.3509113,336.3509113,336.3509113,336.3509113,336.3509113,336.3509113,0.011965458,336.849357,sufficient_time,50,0,900,[0.27444444444444444],[0.10333333333333333],[1],[0],[0],[0.4978482920000715],['deck_C'],336.8498939,336.8593434,339.8447011,339.865479,swara,1,2024-04-09_08h26.10.966,IOWA_Gambling_Task_incase,2023.2.2,None,2024-04-09 08h26.22.322222 +0530
0,0,0,0,8,0,8,0,0,8,8,8,339.865479,,,,,,,,,,,,,,,,,,,339.8451008,339.865479,339.865479,339.865479,339.865479,339.865479,339.865479,339.865479,339.865479,339.865479,-0.00026475,340.5716171,sufficient_time,50,0,950,[0.2511111111111111],[0.10555555555555556],[1],[0],[0],[0.721334874999684],['deck_C'],340.5721323,340.5931792,343.5779375,,swara,1,2024-04-09_08h26.10.966,IOWA_Gambling_Task_incase,2023.2.2,None,2024-04-09 08h26.22.322222 +0530
250,0,50,0,8,0,8,0,0,9,9,4,343.5985754,,,,,,,,,,,,,,,,,,,343.5783335,343.5985754,343.5985754,343.5985754,343.5985754,343.5985754,343.5985754,343.5985754,343.5985754,343.5985754,0.010724167,344.0500107,sufficient_time,50,50,950,[0.2511111111111111],[0.10555555555555556],[1],[0],[0],[0.46638908300019466],['deck_C'],344.0505218,344.0591965,347.043419,347.0697323,swara,1,2024-04-09_08h26.10.966,IOWA_Gambling_Task_incase,2023.2.2,None,2024-04-09 08h26.22.322222 +0530
,,,,8,0,8,0,,,,,,,,,,,,,,,,,,,,,,,,,,,,,,,,,,,,,,,,,,,,,,,,,,,swara,1,2024-04-09_08h26.10.966,IOWA_Gambling_Task_incase,2023.2.2,None,2024-04-09 08h26.22.322222 +0530
0,0,0,0,9,0,9,0,0,0,0,6,347.0697323,,,,,,,,,,,,,,,,,,,347.0546156,347.0697323,347.0697323,347.0697323,347.0697323,347.0697323,347.0697323,347.0697323,347.0697323,347.0697323,0.004162792,347.7111511,sufficient_time,50,0,1000,[0.2511111111111111],[0.10555555555555556],[1],[0],[0],[0.6557653750001009],['deck_C'],347.7120215,347.7205538,350.7102673,350.7318113,swara,1,2024-04-09_08h26.10.966,IOWA_Gambling_Task_incase,2023.2.2,None,2024-04-09 08h26.22.322222 +0530
250,0,50,0,9,0,9,0,0,1,1,3,350.7318113,,,,,,,,,,,,,,,,,,,350.7106814,350.7318113,350.7318113,350.7318113,350.7318113,350.7318113,350.7318113,350.7318113,350.7318113,350.7318113,0.003268583,351.8779408,sufficient_time,50,50,1000,[0.2511111111111111],[0.10555555555555556],[1],[0],[0],[1.1619127500002833],['deck_C'],351.8784498,351.8863321,354.8771022,354.8936404,swara,1,2024-04-09_08h26.10.966,IOWA_Gambling_Task_incase,2023.2.2,None,2024-04-09 08h26.22.322222 +0530
0,0,0,0,9,0,9,0,0,2,2,5,354.8936404,,,,,,,,,,,,,,,,,,,354.8775188,354.8936404,354.8936404,354.8936404,354.8936404,354.8936404,354.8936404,354.8936404,354.8936404,354.8936404,-0.00086275,358.629306,sufficient_time,100,0,1100,[-0.16666666666666666],[0.06888888888888889],[1],[0],[0],[3.750955334000082],['deck_B'],358.6298386,358.6431708,361.6276043,361.6477915,swara,1,2024-04-09_08h26.10.966,IOWA_Gambling_Task_incase,2023.2.2,None,2024-04-09 08h26.22.322222 +0530
250,0,50,0,9,0,9,0,0,3,3,4,361.6477915,,,,,,,,,,,,,,,,,,,361.6280418,361.6477915,361.6477915,361.6477915,361.6477915,361.6477915,361.6477915,361.6477915,361.6477915,361.6477915,0.002702125,362.1333779,sufficient_time,100,0,1200,[-0.16666666666666666],[0.06888888888888889],[1],[0],[0],[0.5001795000002858],['deck_B'],362.133884,362.1434193,365.1276217,365.1516202,swara,1,2024-04-09_08h26.10.966,IOWA_Gambling_Task_incase,2023.2.2,None,2024-04-09 08h26.22.322222 +0530
0,0,0,0,9,0,9,0,0,4,4,8,365.1516202,,,,,,,,,,,,,,,,,,,365.1280611,365.1516202,365.1516202,365.1516202,365.1516202,365.1516202,365.1516202,365.1516202,365.1516202,365.1516202,-0.000602792,365.6667366,sufficient_time,100,0,1300,[-0.5233333333333333],[0.04777777777777778],[1],[0],[0],[0.5328326659996492],['deck_A'],365.6672348,365.6765864,368.6611682,368.6807201,swara,1,2024-04-09_08h26.10.966,IOWA_Gambling_Task_incase,2023.2.2,None,2024-04-09 08h26.22.322222 +0530
250,1250,50,250,9,0,9,0,0,5,5,0,368.6807201,,,,,,,,,,,,,,,,,,,368.6615883,368.6807201,368.6807201,368.6807201,368.6807201,368.6807201,368.6807201,368.6807201,368.6807201,368.6807201,0.01364525,369.0334772,sufficient_time,100,1250,150,[-0.20666666666666667],[0.04],[1],[0],[0],[0.3521902079996835],['deck_B'],369.0339794,369.0432599,372.0278751,372.0473702,swara,1,2024-04-09_08h26.10.966,IOWA_Gambling_Task_incase,2023.2.2,None,2024-04-09 08h26.22.322222 +0530
250,0,50,0,9,0,9,0,0,6,6,1,372.0473702,,,,,,,,,,,,,,,,,,,372.0282787,372.0473702,372.0473702,372.0473702,372.0473702,372.0473702,372.0473702,372.0473702,372.0473702,372.0473702,0.013570417,373.4170094,sufficient_time,100,250,0,[-0.6144444444444445],[0.04555555555555556],[1],[0],[0],[1.369040957999914],['deck_A'],373.4175641,373.4266471,376.4114055,376.4308149,swara,1,2024-04-09_08h26.10.966,IOWA_Gambling_Task_incase,2023.2.2,None,2024-04-09 08h26.22.322222 +0530
0,0,0,0,9,0,9,0,0,7,7,7,376.4308149,,,,,,,,,,,,,,,,,,,376.4118387,376.4308149,376.4308149,376.4308149,376.4308149,376.4308149,376.4308149,376.4308149,376.4308149,376.4308149,0.013423708,376.8561212,sufficient_time,50,0,50,[0.3022222222222222],[0.09888888888888889],[1],[0],[0],[0.4244050829997832],['deck_C'],376.8566214,376.8646639,379.8508029,379.8710873,swara,1,2024-04-09_08h26.10.966,IOWA_Gambling_Task_incase,2023.2.2,None,2024-04-09 08h26.22.322222 +0530
0,0,0,0,9,0,9,0,0,8,8,9,379.8710873,,,,,,,,,,,,,,,,,,,379.8512205,379.8710873,379.8710873,379.8710873,379.8710873,379.8710873,379.8710873,379.8710873,379.8710873,379.8710873,-0.000865583,380.3559718,sufficient_time,50,0,100,[0.3022222222222222],[0.09888888888888889],[1],[0],[0],[0.4995498329999464],['deck_C'],380.3564753,380.37698,383.3619635,,swara,1,2024-04-09_08h26.10.966,IOWA_Gambling_Task_incase,2023.2.2,None,2024-04-09 08h26.22.322222 +0530
250,0,50,0,9,0,9,0,0,9,9,2,383.3834676,,,,,,,,,,,,,,,,,,,383.3623879,383.3834676,383.3834676,383.3834676,383.3834676,383.3834676,383.3834676,383.3834676,383.3834676,383.3834676,0.0104415,384.0228944,sufficient_time,50,0,150,[0.5244444444444445],[0.15888888888888889],[1],[0],[0],[0.655323457999657],['deck_D'],384.0233895,384.0313789,387.017767,387.0276502,swara,1,2024-04-09_08h26.10.966,IOWA_Gambling_Task_incase,2023.2.2,None,2024-04-09 08h26.22.322222 +0530
,,,,9,0,9,0,,,,,,,,,,,,,,,,,,,,,,,,,,,,,,,,,,,,,,,,,,,,,,,,,,,swara,1,2024-04-09_08h26.10.966,IOWA_Gambling_Task_incase,2023.2.2,None,2024-04-09 08h26.22.322222 +0530